[
	{
		"rt": 6327.600000008941,
		"stimulus": "<div style=\"margin: 50px auto; width: 100px; height: 100px; background-color: rgb(46, 26, 122);\"></div>",
		"slider_start": 50,
		"response": 32,
		"trial_type": "html-slider-response",
		"trial_index": 0,
		"time_elapsed": 6330,
		"internal_node_id": "0.0-0.0"
	},
	{
		"rt": null,
		"stimulus": "<div style=\"margin: 50px auto; width: 100px; height: 100px; background-color: rgb(29, 23, 138)\"></div>",
		"slider_start": 10,
		"response": null,
		"trial_type": "html-slider-response",
		"trial_index": 1,
		"time_elapsed": 11590,
		"internal_node_id": "0.0-1.0"
	},
	{
		"rt": 4411.0999999940395,
		"stimulus": "<div style=\"margin: 50px auto; width: 100px; height: 100px; background-color: rgb(63, 17, 129)\"></div>",
		"slider_start": 50,
		"response": 26,
		"trial_type": "html-slider-response",
		"trial_index": 2,
		"time_elapsed": 16259,
		"internal_node_id": "0.0-2.0"
	}
]