[
	{
		"rt": 10326,
		"response": {
			"first": "red",
			"second": "green",
			"third": "blue"
		},
		"trial_type": "survey-html-form",
		"trial_index": 0,
		"time_elapsed": 10330,
		"internal_node_id": "0.0-0.0"
	},
	{
		"rt": 4829,
		"response": {
			"fav-bird": "penguin"
		},
		"trial_type": "survey-html-form",
		"trial_index": 1,
		"time_elapsed": 15161,
		"internal_node_id": "0.0-1.0"
	}
]