[
	{
		"success": true,
		"timeout": false,
		"failed_images": [],
		"failed_audio": [],
		"failed_video": [],
		"trial_type": "preload",
		"trial_index": 0,
		"time_elapsed": 20,
		"internal_node_id": "0.0-0.0"
	},
	{
		"rt": 1100.7999999970198,
		"stimulus": "<div style=\"max-width:600px;\"><p>Some browsers now require the user to interact with a page before it can play audio. Clicking the button below counts as an interaction.</p><p>Be aware of this when planning audio experiments if you want the first trial to include audio.</p></div>",
		"response": 0,
		"trial_type": "html-button-response",
		"trial_index": 1,
		"time_elapsed": 1378,
		"internal_node_id": "0.0-1.0"
	},
	{
		"rt": 6065.0999999940395,
		"stimulus": "sound/speech_joke.mp3",
		"slider_start": 50,
		"response": 69,
		"trial_type": "audio-slider-response",
		"trial_index": 2,
		"time_elapsed": 7702,
		"internal_node_id": "0.0-2.0"
	},
	{
		"rt": 11580.5,
		"stimulus": "sound/speech_red.mp3",
		"slider_start": 50,
		"response": 66,
		"trial_type": "audio-slider-response",
		"trial_index": 3,
		"time_elapsed": 19536,
		"internal_node_id": "0.0-3.0"
	},
	{
		"rt": 9115,
		"stimulus": "sound/hammer.mp3",
		"slider_start": 50,
		"response": 37,
		"trial_type": "audio-slider-response",
		"trial_index": 4,
		"time_elapsed": 28904,
		"internal_node_id": "0.0-4.0"
	}
]