[
	{
		"rt": 4268,
		"response": 2,
		"color": "blue",
		"radius": 100,
		"trial_type": "canvas-button-response",
		"trial_index": 0,
		"time_elapsed": 4278,
		"internal_node_id": "0.0-0.0"
	},
	{
		"rt": 2345,
		"response": 0,
		"color": "green",
		"radius": 150,
		"trial_type": "canvas-button-response",
		"trial_index": 1,
		"time_elapsed": 6625,
		"internal_node_id": "0.0-1.0"
	},
	{
		"rt": 2831,
		"response": 0,
		"line1_color": "blue",
		"line1_length": 290,
		"line2_color": "purple",
		"line2_length": 170,
		"trial_type": "canvas-button-response",
		"trial_index": 2,
		"time_elapsed": 9458,
		"internal_node_id": "0.0-2.0"
	},
	{
		"rt": 1876,
		"response": 0,
		"radius": 100,
		"color": "red",
		"trial_type": "canvas-button-response",
		"trial_index": 3,
		"time_elapsed": 11342,
		"internal_node_id": "0.0-3.0-0.0"
	},
	{
		"rt": 1413,
		"response": 1,
		"radius": 200,
		"color": "green",
		"trial_type": "canvas-button-response",
		"trial_index": 4,
		"time_elapsed": 12758,
		"internal_node_id": "0.0-3.0-0.1"
	},
	{
		"rt": 1348,
		"response": 2,
		"radius": 50,
		"color": "blue",
		"trial_type": "canvas-button-response",
		"trial_index": 5,
		"time_elapsed": 14108,
		"internal_node_id": "0.0-3.0-0.2"
	}
]