[
	{
		"view_history": [
			{
				"page_index": 0,
				"viewing_time": 1938
			},
			{
				"page_index": 1,
				"viewing_time": 1149
			},
			{
				"page_index": 2,
				"viewing_time": 916
			}
		],
		"rt": 4003,
		"trial_type": "instructions",
		"trial_index": 0,
		"time_elapsed": 4004,
		"internal_node_id": "0.0-0.0"
	},
	{
		"view_history": [
			{
				"page_index": 0,
				"viewing_time": 2916
			},
			{
				"page_index": 1,
				"viewing_time": 1466
			},
			{
				"page_index": 2,
				"viewing_time": 1333
			}
		],
		"rt": 5716,
		"trial_type": "instructions",
		"trial_index": 1,
		"time_elapsed": 9720,
		"internal_node_id": "0.0-1.0"
	}
]