[
	{
		"success": true,
		"timeout": false,
		"failed_images": [],
		"failed_audio": [],
		"failed_video": [],
		"trial_type": "preload",
		"trial_index": 0,
		"time_elapsed": 10,
		"internal_node_id": "0.0-0.0"
	},
	{
		"init_locations": [
			{
				"src": "img/happy_face_3.jpg",
				"x": 465,
				"y": 0
			},
			{
				"src": "img/happy_face_1.jpg",
				"x": -125,
				"y": 380
			},
			{
				"src": "img/sad_face_2.jpg",
				"x": 465,
				"y": 380
			},
			{
				"src": "img/sad_face_4.jpg",
				"x": -125,
				"y": 0
			}
		],
		"moves": [
			{
				"src": "img/sad_face_4.jpg",
				"x": 207,
				"y": 319
			},
			{
				"src": "img/sad_face_2.jpg",
				"x": 301,
				"y": 294
			},
			{
				"src": "img/happy_face_3.jpg",
				"x": 108,
				"y": 63
			},
			{
				"src": "img/happy_face_1.jpg",
				"x": 35,
				"y": 173
			}
		],
		"final_locations": [
			{
				"src": "img/happy_face_3.jpg",
				"x": 108,
				"y": 63
			},
			{
				"src": "img/happy_face_1.jpg",
				"x": 35,
				"y": 173
			},
			{
				"src": "img/sad_face_2.jpg",
				"x": 301,
				"y": 294
			},
			{
				"src": "img/sad_face_4.jpg",
				"x": 207,
				"y": 319
			}
		],
		"rt": 16247,
		"trial_type": "free-sort",
		"trial_index": 1,
		"time_elapsed": 16258,
		"internal_node_id": "0.0-1.0"
	},
	{
		"init_locations": [
			{
				"src": "img/sad_face_4.jpg",
				"x": 590,
				"y": 0
			},
			{
				"src": "img/happy_face_3.jpg",
				"x": -250,
				"y": 280
			},
			{
				"src": "img/happy_face_1.jpg",
				"x": 590,
				"y": 280
			},
			{
				"src": "img/sad_face_2.jpg",
				"x": -250,
				"y": 0
			}
		],
		"moves": [
			{
				"src": "img/happy_face_3.jpg",
				"x": 23,
				"y": 257
			},
			{
				"src": "img/happy_face_1.jpg",
				"x": 292,
				"y": 254
			},
			{
				"src": "img/happy_face_3.jpg",
				"x": 91,
				"y": 258
			},
			{
				"src": "img/happy_face_1.jpg",
				"x": 245,
				"y": 255
			},
			{
				"src": "img/sad_face_4.jpg",
				"x": 69,
				"y": 35
			},
			{
				"src": "img/sad_face_2.jpg",
				"x": 232,
				"y": 39
			}
		],
		"final_locations": [
			{
				"src": "img/sad_face_4.jpg",
				"x": 69,
				"y": 35
			},
			{
				"src": "img/happy_face_3.jpg",
				"x": 91,
				"y": 258
			},
			{
				"src": "img/happy_face_1.jpg",
				"x": 245,
				"y": 255
			},
			{
				"src": "img/sad_face_2.jpg",
				"x": 232,
				"y": 39
			}
		],
		"rt": 16332,
		"trial_type": "free-sort",
		"trial_index": 2,
		"time_elapsed": 32592,
		"internal_node_id": "0.0-2.0"
	},
	{
		"rt": null,
		"response": null,
		"trial_type": "canvas-keyboard-response",
		"trial_index": 3,
		"time_elapsed": 37597,
		"internal_node_id": "0.0-3.0"
	},
	{
		"init_locations": [
			{
				"src": "img/2.gif",
				"x": 535,
				"y": 0
			},
			{
				"src": "img/3.gif",
				"x": -125,
				"y": 410
			},
			{
				"src": "img/1.gif",
				"x": 535,
				"y": 410
			}
		],
		"moves": [
			{
				"src": "img/1.gif",
				"x": 29,
				"y": 23
			},
			{
				"src": "img/2.gif",
				"x": 288,
				"y": 90
			},
			{
				"src": "img/3.gif",
				"x": 364,
				"y": 372
			}
		],
		"final_locations": [
			{
				"src": "img/2.gif",
				"x": 288,
				"y": 90
			},
			{
				"src": "img/3.gif",
				"x": 364,
				"y": 372
			},
			{
				"src": "img/1.gif",
				"x": 29,
				"y": 23
			}
		],
		"rt": 7309,
		"trial_type": "free-sort",
		"trial_index": 4,
		"time_elapsed": 44908,
		"internal_node_id": "0.0-4.0"
	},
	{
		"init_locations": [
			{
				"src": "img/4.gif",
				"x": 130,
				"y": 94
			},
			{
				"src": "img/5.gif",
				"x": 4,
				"y": 72
			},
			{
				"src": "img/6.gif",
				"x": 523,
				"y": 460
			}
		],
		"moves": [],
		"final_locations": [
			{
				"src": "img/4.gif",
				"x": 130,
				"y": 94
			},
			{
				"src": "img/5.gif",
				"x": 4,
				"y": 72
			},
			{
				"src": "img/6.gif",
				"x": 523,
				"y": 460
			}
		],
		"rt": 8498,
		"trial_type": "free-sort",
		"trial_index": 5,
		"time_elapsed": 53408,
		"internal_node_id": "0.0-5.0"
	}
]