[
	{
		"success": true,
		"timeout": false,
		"failed_images": [],
		"failed_audio": [],
		"failed_video": [],
		"trial_type": "preload",
		"trial_index": 0,
		"time_elapsed": 5,
		"internal_node_id": "0.0-0.0"
	},
	{
		"rt": null,
		"stimulus": "img/happy_face_1.jpg",
		"response": null,
		"trial_type": "image-button-response",
		"trial_index": 1,
		"time_elapsed": 1012,
		"internal_node_id": "0.0-1.0-0.0"
	},
	{
		"rt": null,
		"stimulus": "img/happy_face_2.jpg",
		"response": null,
		"trial_type": "image-button-response",
		"trial_index": 2,
		"time_elapsed": 2013,
		"internal_node_id": "0.0-1.0-0.1"
	},
	{
		"rt": null,
		"stimulus": "img/happy_face_3.jpg",
		"response": null,
		"trial_type": "image-button-response",
		"trial_index": 3,
		"time_elapsed": 3016,
		"internal_node_id": "0.0-1.0-0.2"
	},
	{
		"rt": null,
		"stimulus": "img/happy_face_4.jpg",
		"response": null,
		"trial_type": "image-button-response",
		"trial_index": 4,
		"time_elapsed": 4018,
		"internal_node_id": "0.0-1.0-0.3"
	},
	{
		"rt": 4424,
		"stimulus": "img/happy_face_1.jpg",
		"response": 0,
		"trial_type": "image-button-response",
		"trial_index": 5,
		"time_elapsed": 8444,
		"internal_node_id": "0.0-2.0"
	},
	{
		"rt": 2844,
		"stimulus": "img/happy_face_2.jpg",
		"response": 0,
		"trial_type": "image-button-response",
		"trial_index": 6,
		"time_elapsed": 11793,
		"internal_node_id": "0.0-3.0"
	},
	{
		"rt": 1345,
		"stimulus": "img/happy_face_3.jpg",
		"response": 0,
		"trial_type": "image-button-response",
		"trial_index": 7,
		"time_elapsed": 14302,
		"internal_node_id": "0.0-4.0"
	},
	{
		"rt": 1984,
		"stimulus": "img/happy_face_4.jpg",
		"response": 0,
		"trial_type": "image-button-response",
		"trial_index": 8,
		"time_elapsed": 16794,
		"internal_node_id": "0.0-5.0"
	}
]