[
	{
		"rt": 4367,
		"response": "i",
		"shape": "rectangle",
		"trial_type": "canvas-keyboard-response",
		"trial_index": 0,
		"time_elapsed": 4374,
		"internal_node_id": "0.0-0.0"
	},
	{
		"rt": 1715,
		"response": "e",
		"shape": "circle",
		"trial_type": "canvas-keyboard-response",
		"trial_index": 1,
		"time_elapsed": 6090,
		"internal_node_id": "0.0-1.0"
	},
	{
		"rt": 2116,
		"response": "r",
		"color": "red",
		"trial_type": "canvas-keyboard-response",
		"trial_index": 2,
		"time_elapsed": 8209,
		"internal_node_id": "0.0-2.0-0.0"
	},
	{
		"rt": 1379,
		"response": "b",
		"color": "blue",
		"trial_type": "canvas-keyboard-response",
		"trial_index": 3,
		"time_elapsed": 9590,
		"internal_node_id": "0.0-2.0-0.1"
	},
	{
		"rt": 1230,
		"response": "b",
		"color": "blue",
		"trial_type": "canvas-keyboard-response",
		"trial_index": 4,
		"time_elapsed": 10821,
		"internal_node_id": "0.0-2.0-0.2"
	}
]