[
	{
		"rt": 7404,
		"response": {
			"Colors": [
				"Red",
				"Yellow"
			],
			"Foods": [
				"Apples",
				"Bananas"
			]
		},
		"question_order": [
			1,
			0
		],
		"trial_type": "survey-multi-select",
		"trial_index": 0,
		"time_elapsed": 7407,
		"internal_node_id": "0.0-0.0"
	}
]