[
	{
		"success": true,
		"timeout": false,
		"failed_images": [],
		"failed_audio": [],
		"failed_video": [],
		"trial_type": "preload",
		"trial_index": 0,
		"time_elapsed": 5,
		"internal_node_id": "0.0-0.0"
	},
	{
		"rt": null,
		"stimulus": "img/happy_face_1.jpg",
		"slider_start": 50,
		"response": null,
		"trial_type": "image-slider-response",
		"trial_index": 1,
		"time_elapsed": 1274,
		"internal_node_id": "0.0-1.0-0.0"
	},
	{
		"rt": null,
		"stimulus": "img/happy_face_2.jpg",
		"slider_start": 50,
		"response": null,
		"trial_type": "image-slider-response",
		"trial_index": 2,
		"time_elapsed": 2282,
		"internal_node_id": "0.0-1.0-0.1"
	},
	{
		"rt": null,
		"stimulus": "img/happy_face_3.jpg",
		"slider_start": 50,
		"response": null,
		"trial_type": "image-slider-response",
		"trial_index": 3,
		"time_elapsed": 3288,
		"internal_node_id": "0.0-1.0-0.2"
	},
	{
		"rt": null,
		"stimulus": "img/happy_face_4.jpg",
		"slider_start": 50,
		"response": null,
		"trial_type": "image-slider-response",
		"trial_index": 4,
		"time_elapsed": 4291,
		"internal_node_id": "0.0-1.0-0.3"
	},
	{
		"rt": 6884,
		"stimulus": "img/happy_face_1.jpg",
		"slider_start": 50,
		"response": 72,
		"trial_type": "image-slider-response",
		"trial_index": 5,
		"time_elapsed": 11178,
		"internal_node_id": "0.0-2.0"
	},
	{
		"rt": 2441,
		"stimulus": "img/happy_face_2.jpg",
		"slider_start": 80,
		"response": 61,
		"trial_type": "image-slider-response",
		"trial_index": 6,
		"time_elapsed": 13877,
		"internal_node_id": "0.0-3.0"
	},
	{
		"rt": 2147,
		"stimulus": "img/happy_face_3.jpg",
		"slider_start": 50,
		"response": 71,
		"trial_type": "image-slider-response",
		"trial_index": 7,
		"time_elapsed": 16278,
		"internal_node_id": "0.0-4.0"
	}
]