[
	{
		"success": true,
		"timeout": false,
		"failed_images": [],
		"failed_audio": [],
		"failed_video": [],
		"trial_type": "preload",
		"trial_index": 0,
		"time_elapsed": 6,
		"internal_node_id": "0.0-0.0"
	},
	{
		"rt": 12646,
		"stimulus": "<p>You will see a set of Ns on the following screens. Press j if there is a backwards N. If there is no backwards N press f.</p><p>Press any key to begin.</p>",
		"response": " ",
		"trial_type": "html-keyboard-response",
		"trial_index": 1,
		"time_elapsed": 12646,
		"internal_node_id": "0.0-1.0"
	},
	{
		"correct": true,
		"rt": 794,
		"response": "j",
		"locations": [
			[
				49,
				224
			],
			[
				224,
				200
			],
			[
				200,
				25
			],
			[
				25,
				49
			]
		],
		"target_present": true,
		"set_size": 4,
		"trial_type": "visual-search-circle",
		"trial_index": 2,
		"time_elapsed": 14448,
		"internal_node_id": "0.0-2.0-0.0"
	},
	{
		"correct": true,
		"rt": 966,
		"response": "j",
		"locations": [
			[
				153,
				3
			],
			[
				5,
				161
			],
			[
				216,
				210
			]
		],
		"target_present": true,
		"set_size": 3,
		"trial_type": "visual-search-circle",
		"trial_index": 3,
		"time_elapsed": 16421,
		"internal_node_id": "0.0-2.0-1.0"
	},
	{
		"correct": true,
		"rt": 3647,
		"response": "f",
		"locations": [
			[
				78,
				240
			],
			[
				201,
				223
			],
			[
				248,
				107
			],
			[
				171,
				9
			],
			[
				48,
				26
			],
			[
				1,
				142
			]
		],
		"target_present": false,
		"set_size": 6,
		"trial_type": "visual-search-circle",
		"trial_index": 4,
		"time_elapsed": 21076,
		"internal_node_id": "0.0-2.0-2.0"
	},
	{
		"correct": true,
		"rt": 2361,
		"response": "j",
		"locations": [
			[
				0,
				140
			],
			[
				101,
				247
			],
			[
				234,
				185
			],
			[
				216,
				39
			],
			[
				72,
				11
			]
		],
		"target_present": true,
		"set_size": null,
		"trial_type": "visual-search-circle",
		"trial_index": 5,
		"time_elapsed": 24444,
		"internal_node_id": "0.0-3.0"
	}
]