[
	{
		"success": true,
		"timeout": false,
		"failed_images": [],
		"failed_audio": [],
		"failed_video": [],
		"trial_type": "preload",
		"trial_index": 0,
		"time_elapsed": 15,
		"internal_node_id": "0.0-0.0"
	},
	{
		"rt": 1459,
		"stimulus": "<div style=\"max-width:600px;\"><p>Some browsers now require the user to interact with a page before it can play audio. Clicking the button below counts as an interaction.</p><p>Be aware of this when planning audio experiments if you want the first trial to include audio.</p></div>",
		"response": 0,
		"trial_type": "html-button-response",
		"trial_index": 1,
		"time_elapsed": 1732,
		"internal_node_id": "0.0-1.0"
	},
	{
		"rt": 6793,
		"stimulus": "sound/speech_joke.mp3",
		"slider_start": 50,
		"response": 71,
		"trial_type": "audio-slider-response",
		"trial_index": 2,
		"time_elapsed": 8781,
		"internal_node_id": "0.0-2.0"
	},
	{
		"rt": 4275,
		"stimulus": "sound/speech_red.mp3",
		"slider_start": 50,
		"response": 71,
		"trial_type": "audio-slider-response",
		"trial_index": 3,
		"time_elapsed": 13314,
		"internal_node_id": "0.0-3.0"
	},
	{
		"rt": 8713,
		"stimulus": "sound/hammer.mp3",
		"slider_start": 50,
		"response": 32,
		"trial_type": "audio-slider-response",
		"trial_index": 4,
		"time_elapsed": 22280,
		"internal_node_id": "0.0-4.0"
	}
]