[
	{
		"rt": 6527,
		"response": {
			"Vegetables": 3,
			"Fruit": 3
		},
		"question_order": [
			0,
			1
		],
		"trial_type": "survey-likert",
		"trial_index": 0,
		"time_elapsed": 6531,
		"internal_node_id": "0.0-0.0"
	},
	{
		"rt": 9340,
		"response": {
			"Q2": 2,
			"Q4": 1,
			"Q0": 3,
			"Q1": 1,
			"Q3": 3
		},
		"question_order": [
			2,
			4,
			0,
			1,
			3
		],
		"trial_type": "survey-likert",
		"trial_index": 1,
		"time_elapsed": 15880,
		"internal_node_id": "0.0-1.0"
	}
]