[
	{
		"success": true,
		"timeout": false,
		"failed_images": [],
		"failed_audio": [],
		"failed_video": [],
		"trial_type": "preload",
		"trial_index": 0,
		"time_elapsed": 3,
		"internal_node_id": "0.0-0.0"
	},
	{
		"animation_sequence": [
			{
				"stimulus": "img/happy_face_1.jpg",
				"time": 7
			},
			{
				"stimulus": "img/happy_face_2.jpg",
				"time": 306
			},
			{
				"stimulus": "img/happy_face_3.jpg",
				"time": 606
			},
			{
				"stimulus": "img/happy_face_4.jpg",
				"time": 903
			},
			{
				"stimulus": "img/happy_face_1.jpg",
				"time": 1205
			},
			{
				"stimulus": "img/happy_face_2.jpg",
				"time": 1506
			},
			{
				"stimulus": "img/happy_face_3.jpg",
				"time": 1804
			},
			{
				"stimulus": "img/happy_face_4.jpg",
				"time": 2103
			},
			{
				"stimulus": "img/happy_face_1.jpg",
				"time": 2405
			},
			{
				"stimulus": "img/happy_face_2.jpg",
				"time": 2705
			},
			{
				"stimulus": "img/happy_face_3.jpg",
				"time": 3004
			},
			{
				"stimulus": "img/happy_face_4.jpg",
				"time": 3303
			}
		],
		"response": [
			{
				"key_press": "a",
				"rt": 629,
				"stimulus": "img/happy_face_3.jpg"
			},
			{
				"key_press": "a",
				"rt": 1512,
				"stimulus": "img/happy_face_2.jpg"
			},
			{
				"key_press": "a",
				"rt": 2627,
				"stimulus": "img/happy_face_1.jpg"
			}
		],
		"trial_type": "animation",
		"trial_index": 1,
		"time_elapsed": 3608,
		"internal_node_id": "0.0-1.0"
	}
]