[
	{
		"success": true,
		"trial_type": "fullscreen",
		"trial_index": 0,
		"time_elapsed": 3356,
		"internal_node_id": "0.0-0.0"
	},
	{
		"success": true,
		"timeout": false,
		"failed_images": [],
		"failed_audio": [],
		"failed_video": [],
		"trial_type": "preload",
		"trial_index": 1,
		"time_elapsed": 3364,
		"internal_node_id": "0.0-1.0"
	},
	{
		"rt": 1965,
		"stimulus": "img/happy_face_1.jpg",
		"response": "y",
		"trial_type": "image-keyboard-response",
		"trial_index": 2,
		"time_elapsed": 5336,
		"internal_node_id": "0.0-2.0"
	},
	{
		"success": true,
		"trial_type": "fullscreen",
		"trial_index": 3,
		"time_elapsed": 6342,
		"internal_node_id": "0.0-3.0"
	}
]