[
	{
		"rt": 9010,
		"response": "3",
		"correct": false,
		"grid": [
			[
				1,
				1,
				1,
				1
			]
		],
		"target": [
			0,
			2
		],
		"trial_type": "serial-reaction-time",
		"trial_index": 0,
		"time_elapsed": 9013,
		"internal_node_id": "0.0-0.0-0.0"
	},
	{
		"rt": 2636,
		"response": "5",
		"correct": true,
		"grid": [
			[
				1,
				1,
				1,
				1
			]
		],
		"target": [
			0,
			1
		],
		"trial_type": "serial-reaction-time",
		"trial_index": 1,
		"time_elapsed": 11651,
		"internal_node_id": "0.0-0.0-1.0"
	},
	{
		"rt": 879,
		"response": "3",
		"correct": true,
		"grid": [
			[
				1,
				1,
				1,
				1
			]
		],
		"target": [
			0,
			0
		],
		"trial_type": "serial-reaction-time",
		"trial_index": 2,
		"time_elapsed": 12531,
		"internal_node_id": "0.0-0.0-0.1"
	},
	{
		"rt": 1014,
		"response": "9",
		"correct": true,
		"grid": [
			[
				1,
				1,
				1,
				1
			]
		],
		"target": [
			0,
			3
		],
		"trial_type": "serial-reaction-time",
		"trial_index": 3,
		"time_elapsed": 13547,
		"internal_node_id": "0.0-0.0-1.1"
	},
	{
		"rt": 1113,
		"response": "3",
		"correct": true,
		"grid": [
			[
				1,
				1,
				1,
				1
			]
		],
		"target": [
			0,
			0
		],
		"trial_type": "serial-reaction-time",
		"trial_index": 4,
		"time_elapsed": 14663,
		"internal_node_id": "0.0-0.0-0.2"
	},
	{
		"rt": 914,
		"response": "9",
		"correct": true,
		"grid": [
			[
				1,
				1,
				1,
				1
			]
		],
		"target": [
			0,
			3
		],
		"trial_type": "serial-reaction-time",
		"trial_index": 5,
		"time_elapsed": 15579,
		"internal_node_id": "0.0-0.0-1.2"
	},
	{
		"rt": 951,
		"response": "7",
		"correct": true,
		"grid": [
			[
				1,
				1,
				1,
				1
			]
		],
		"target": [
			0,
			2
		],
		"trial_type": "serial-reaction-time",
		"trial_index": 6,
		"time_elapsed": 16531,
		"internal_node_id": "0.0-0.0-0.3"
	},
	{
		"rt": 1438,
		"response": "5",
		"correct": true,
		"grid": [
			[
				1,
				1,
				1,
				1
			]
		],
		"target": [
			0,
			1
		],
		"trial_type": "serial-reaction-time",
		"trial_index": 7,
		"time_elapsed": 17971,
		"internal_node_id": "0.0-0.0-1.3"
	},
	{
		"rt": 1027,
		"response": "3",
		"correct": true,
		"grid": [
			[
				1,
				1,
				1,
				1
			]
		],
		"target": [
			0,
			0
		],
		"trial_type": "serial-reaction-time",
		"trial_index": 8,
		"time_elapsed": 18999,
		"internal_node_id": "0.0-0.0-0.4"
	},
	{
		"rt": 1250,
		"response": "9",
		"correct": true,
		"grid": [
			[
				1,
				1,
				1,
				1
			]
		],
		"target": [
			0,
			3
		],
		"trial_type": "serial-reaction-time",
		"trial_index": 9,
		"time_elapsed": 20251,
		"internal_node_id": "0.0-0.0-1.4"
	},
	{
		"rt": 919,
		"response": "7",
		"correct": true,
		"grid": [
			[
				1,
				1,
				1,
				1
			]
		],
		"target": [
			0,
			2
		],
		"trial_type": "serial-reaction-time",
		"trial_index": 10,
		"time_elapsed": 21171,
		"internal_node_id": "0.0-0.0-0.5"
	},
	{
		"rt": 1199,
		"response": "5",
		"correct": true,
		"grid": [
			[
				1,
				1,
				1,
				1
			]
		],
		"target": [
			0,
			1
		],
		"trial_type": "serial-reaction-time",
		"trial_index": 11,
		"time_elapsed": 22371,
		"internal_node_id": "0.0-0.0-1.5"
	},
	{
		"rt": 1278,
		"response": "7",
		"correct": true,
		"grid": [
			[
				1,
				1,
				1,
				1
			]
		],
		"target": [
			0,
			2
		],
		"trial_type": "serial-reaction-time",
		"trial_index": 12,
		"time_elapsed": 23651,
		"internal_node_id": "0.0-0.0-0.6"
	},
	{
		"rt": 926,
		"response": "5",
		"correct": true,
		"grid": [
			[
				1,
				1,
				1,
				1
			]
		],
		"target": [
			0,
			1
		],
		"trial_type": "serial-reaction-time",
		"trial_index": 13,
		"time_elapsed": 24578,
		"internal_node_id": "0.0-0.0-1.6"
	},
	{
		"rt": 987,
		"response": "3",
		"correct": true,
		"grid": [
			[
				1,
				1,
				1,
				1
			]
		],
		"target": [
			0,
			0
		],
		"trial_type": "serial-reaction-time",
		"trial_index": 14,
		"time_elapsed": 25567,
		"internal_node_id": "0.0-0.0-0.7"
	},
	{
		"rt": 938,
		"response": "9",
		"correct": true,
		"grid": [
			[
				1,
				1,
				1,
				1
			]
		],
		"target": [
			0,
			3
		],
		"trial_type": "serial-reaction-time",
		"trial_index": 15,
		"time_elapsed": 26507,
		"internal_node_id": "0.0-0.0-1.7"
	},
	{
		"rt": 875,
		"response": "3",
		"correct": true,
		"grid": [
			[
				1,
				1,
				1,
				1
			]
		],
		"target": [
			0,
			0
		],
		"trial_type": "serial-reaction-time",
		"trial_index": 16,
		"time_elapsed": 27383,
		"internal_node_id": "0.0-0.0-0.8"
	},
	{
		"rt": 891,
		"response": "9",
		"correct": true,
		"grid": [
			[
				1,
				1,
				1,
				1
			]
		],
		"target": [
			0,
			3
		],
		"trial_type": "serial-reaction-time",
		"trial_index": 17,
		"time_elapsed": 28275,
		"internal_node_id": "0.0-0.0-1.8"
	},
	{
		"rt": 910,
		"response": "7",
		"correct": true,
		"grid": [
			[
				1,
				1,
				1,
				1
			]
		],
		"target": [
			0,
			2
		],
		"trial_type": "serial-reaction-time",
		"trial_index": 18,
		"time_elapsed": 29186,
		"internal_node_id": "0.0-0.0-0.9"
	},
	{
		"rt": 887,
		"response": "5",
		"correct": true,
		"grid": [
			[
				1,
				1,
				1,
				1
			]
		],
		"target": [
			0,
			1
		],
		"trial_type": "serial-reaction-time",
		"trial_index": 19,
		"time_elapsed": 30074,
		"internal_node_id": "0.0-0.0-1.9"
	},
	{
		"rt": 987,
		"response": "7",
		"correct": true,
		"grid": [
			[
				1,
				1,
				1,
				1
			]
		],
		"target": [
			0,
			2
		],
		"trial_type": "serial-reaction-time",
		"trial_index": 20,
		"time_elapsed": 31062,
		"internal_node_id": "0.0-0.0-0.10"
	},
	{
		"rt": 891,
		"response": "5",
		"correct": true,
		"grid": [
			[
				1,
				1,
				1,
				1
			]
		],
		"target": [
			0,
			1
		],
		"trial_type": "serial-reaction-time",
		"trial_index": 21,
		"time_elapsed": 31954,
		"internal_node_id": "0.0-0.0-1.10"
	},
	{
		"rt": 843,
		"response": "3",
		"correct": true,
		"grid": [
			[
				1,
				1,
				1,
				1
			]
		],
		"target": [
			0,
			0
		],
		"trial_type": "serial-reaction-time",
		"trial_index": 22,
		"time_elapsed": 32798,
		"internal_node_id": "0.0-0.0-0.11"
	},
	{
		"rt": 823,
		"response": "9",
		"correct": true,
		"grid": [
			[
				1,
				1,
				1,
				1
			]
		],
		"target": [
			0,
			3
		],
		"trial_type": "serial-reaction-time",
		"trial_index": 23,
		"time_elapsed": 33623,
		"internal_node_id": "0.0-0.0-1.11"
	},
	{
		"rt": 826,
		"response": "7",
		"correct": true,
		"grid": [
			[
				1,
				1,
				1,
				1
			]
		],
		"target": [
			0,
			2
		],
		"trial_type": "serial-reaction-time",
		"trial_index": 24,
		"time_elapsed": 34451,
		"internal_node_id": "0.0-0.0-0.12"
	},
	{
		"rt": 859,
		"response": "5",
		"correct": true,
		"grid": [
			[
				1,
				1,
				1,
				1
			]
		],
		"target": [
			0,
			1
		],
		"trial_type": "serial-reaction-time",
		"trial_index": 25,
		"time_elapsed": 35311,
		"internal_node_id": "0.0-0.0-1.12"
	},
	{
		"rt": 750,
		"response": "3",
		"correct": true,
		"grid": [
			[
				1,
				1,
				1,
				1
			]
		],
		"target": [
			0,
			0
		],
		"trial_type": "serial-reaction-time",
		"trial_index": 26,
		"time_elapsed": 36062,
		"internal_node_id": "0.0-0.0-0.13"
	},
	{
		"rt": 871,
		"response": "9",
		"correct": true,
		"grid": [
			[
				1,
				1,
				1,
				1
			]
		],
		"target": [
			0,
			3
		],
		"trial_type": "serial-reaction-time",
		"trial_index": 27,
		"time_elapsed": 36934,
		"internal_node_id": "0.0-0.0-1.13"
	},
	{
		"rt": 747,
		"response": "3",
		"correct": true,
		"grid": [
			[
				1,
				1,
				1,
				1
			]
		],
		"target": [
			0,
			0
		],
		"trial_type": "serial-reaction-time",
		"trial_index": 28,
		"time_elapsed": 37682,
		"internal_node_id": "0.0-0.0-0.14"
	},
	{
		"rt": 1383,
		"response": "9",
		"correct": true,
		"grid": [
			[
				1,
				1,
				1,
				1
			]
		],
		"target": [
			0,
			3
		],
		"trial_type": "serial-reaction-time",
		"trial_index": 29,
		"time_elapsed": 39066,
		"internal_node_id": "0.0-0.0-1.14"
	},
	{
		"rt": 875,
		"response": "7",
		"correct": true,
		"grid": [
			[
				1,
				1,
				1,
				1
			]
		],
		"target": [
			0,
			2
		],
		"trial_type": "serial-reaction-time",
		"trial_index": 30,
		"time_elapsed": 39942,
		"internal_node_id": "0.0-0.0-0.15"
	},
	{
		"rt": 1027,
		"response": "5",
		"correct": true,
		"grid": [
			[
				1,
				1,
				1,
				1
			]
		],
		"target": [
			0,
			1
		],
		"trial_type": "serial-reaction-time",
		"trial_index": 31,
		"time_elapsed": 40970,
		"internal_node_id": "0.0-0.0-1.15"
	},
	{
		"rt": 840,
		"response": "3",
		"correct": true,
		"grid": [
			[
				1,
				1,
				1,
				1
			]
		],
		"target": [
			0,
			0
		],
		"trial_type": "serial-reaction-time",
		"trial_index": 32,
		"time_elapsed": 41811,
		"internal_node_id": "0.0-0.0-0.16"
	},
	{
		"rt": 818,
		"response": "9",
		"correct": true,
		"grid": [
			[
				1,
				1,
				1,
				1
			]
		],
		"target": [
			0,
			3
		],
		"trial_type": "serial-reaction-time",
		"trial_index": 33,
		"time_elapsed": 42630,
		"internal_node_id": "0.0-0.0-1.16"
	},
	{
		"rt": 851,
		"response": "7",
		"correct": true,
		"grid": [
			[
				1,
				1,
				1,
				1
			]
		],
		"target": [
			0,
			2
		],
		"trial_type": "serial-reaction-time",
		"trial_index": 34,
		"time_elapsed": 43483,
		"internal_node_id": "0.0-0.0-0.17"
	},
	{
		"rt": 858,
		"response": "5",
		"correct": true,
		"grid": [
			[
				1,
				1,
				1,
				1
			]
		],
		"target": [
			0,
			1
		],
		"trial_type": "serial-reaction-time",
		"trial_index": 35,
		"time_elapsed": 44342,
		"internal_node_id": "0.0-0.0-1.17"
	},
	{
		"rt": 763,
		"response": "3",
		"correct": true,
		"grid": [
			[
				1,
				1,
				1,
				1
			]
		],
		"target": [
			0,
			0
		],
		"trial_type": "serial-reaction-time",
		"trial_index": 36,
		"time_elapsed": 45106,
		"internal_node_id": "0.0-0.0-0.18"
	},
	{
		"rt": 963,
		"response": "9",
		"correct": true,
		"grid": [
			[
				1,
				1,
				1,
				1
			]
		],
		"target": [
			0,
			3
		],
		"trial_type": "serial-reaction-time",
		"trial_index": 37,
		"time_elapsed": 46070,
		"internal_node_id": "0.0-0.0-1.18"
	},
	{
		"rt": 783,
		"response": "7",
		"correct": true,
		"grid": [
			[
				1,
				1,
				1,
				1
			]
		],
		"target": [
			0,
			2
		],
		"trial_type": "serial-reaction-time",
		"trial_index": 38,
		"time_elapsed": 46854,
		"internal_node_id": "0.0-0.0-0.19"
	},
	{
		"rt": 871,
		"response": "5",
		"correct": true,
		"grid": [
			[
				1,
				1,
				1,
				1
			]
		],
		"target": [
			0,
			1
		],
		"trial_type": "serial-reaction-time",
		"trial_index": 39,
		"time_elapsed": 47726,
		"internal_node_id": "0.0-0.0-1.19"
	}
]