[
	{
		"success": true,
		"timeout": false,
		"failed_images": [],
		"failed_audio": [],
		"failed_video": [],
		"trial_type": "preload",
		"trial_index": 0,
		"time_elapsed": 5,
		"internal_node_id": "0.0-0.0"
	},
	{
		"rt": null,
		"stimulus": "img/happy_face_1.jpg",
		"response": null,
		"trial_type": "image-keyboard-response",
		"trial_index": 1,
		"time_elapsed": 311,
		"internal_node_id": "0.0-1.0-0.0"
	},
	{
		"rt": null,
		"stimulus": "img/happy_face_2.jpg",
		"response": null,
		"trial_type": "image-keyboard-response",
		"trial_index": 2,
		"time_elapsed": 617,
		"internal_node_id": "0.0-1.0-0.1"
	},
	{
		"rt": null,
		"stimulus": "img/happy_face_3.jpg",
		"response": null,
		"trial_type": "image-keyboard-response",
		"trial_index": 3,
		"time_elapsed": 922,
		"internal_node_id": "0.0-1.0-0.2"
	},
	{
		"rt": null,
		"stimulus": "img/happy_face_4.jpg",
		"response": null,
		"trial_type": "image-keyboard-response",
		"trial_index": 4,
		"time_elapsed": 1226,
		"internal_node_id": "0.0-1.0-0.3"
	},
	{
		"rt": null,
		"stimulus": "img/happy_face_1.jpg",
		"response": null,
		"trial_type": "image-keyboard-response",
		"trial_index": 5,
		"time_elapsed": 1530,
		"internal_node_id": "0.0-1.0-0.4"
	},
	{
		"rt": null,
		"stimulus": "img/happy_face_2.jpg",
		"response": null,
		"trial_type": "image-keyboard-response",
		"trial_index": 6,
		"time_elapsed": 1834,
		"internal_node_id": "0.0-1.0-0.5"
	},
	{
		"rt": null,
		"stimulus": "img/happy_face_3.jpg",
		"response": null,
		"trial_type": "image-keyboard-response",
		"trial_index": 7,
		"time_elapsed": 2138,
		"internal_node_id": "0.0-1.0-0.6"
	},
	{
		"rt": null,
		"stimulus": "img/happy_face_4.jpg",
		"response": null,
		"trial_type": "image-keyboard-response",
		"trial_index": 8,
		"time_elapsed": 2442,
		"internal_node_id": "0.0-1.0-0.7"
	},
	{
		"rt": null,
		"stimulus": "img/happy_face_1.jpg",
		"response": null,
		"trial_type": "image-keyboard-response",
		"trial_index": 9,
		"time_elapsed": 2746,
		"internal_node_id": "0.0-1.0-0.8"
	},
	{
		"rt": null,
		"stimulus": "img/happy_face_2.jpg",
		"response": null,
		"trial_type": "image-keyboard-response",
		"trial_index": 10,
		"time_elapsed": 3049,
		"internal_node_id": "0.0-1.0-0.9"
	},
	{
		"rt": null,
		"stimulus": "img/happy_face_3.jpg",
		"response": null,
		"trial_type": "image-keyboard-response",
		"trial_index": 11,
		"time_elapsed": 3354,
		"internal_node_id": "0.0-1.0-0.10"
	},
	{
		"rt": null,
		"stimulus": "img/happy_face_4.jpg",
		"response": null,
		"trial_type": "image-keyboard-response",
		"trial_index": 12,
		"time_elapsed": 3658,
		"internal_node_id": "0.0-1.0-0.11"
	},
	{
		"rt": 2115,
		"stimulus": "img/happy_face_1.jpg",
		"response": "y",
		"trial_type": "image-keyboard-response",
		"trial_index": 13,
		"time_elapsed": 5776,
		"internal_node_id": "0.0-2.0"
	},
	{
		"rt": 997,
		"stimulus": "img/happy_face_2.jpg",
		"response": "y",
		"trial_type": "image-keyboard-response",
		"trial_index": 14,
		"time_elapsed": 6775,
		"internal_node_id": "0.0-3.0"
	},
	{
		"rt": null,
		"stimulus": "img/happy_face_3.jpg",
		"response": null,
		"trial_type": "image-keyboard-response",
		"trial_index": 15,
		"time_elapsed": 8778,
		"internal_node_id": "0.0-4.0"
	},
	{
		"rt": 2478,
		"stimulus": "img/happy_face_4.jpg",
		"response": "y",
		"trial_type": "image-keyboard-response",
		"trial_index": 16,
		"time_elapsed": 11259,
		"internal_node_id": "0.0-5.0"
	}
]