[
	{
		"success": true,
		"timeout": false,
		"failed_images": [],
		"failed_audio": [],
		"failed_video": [],
		"trial_type": "preload",
		"trial_index": 0,
		"time_elapsed": 6,
		"internal_node_id": "0.0-0.0"
	},
	{
		"rt": 1217,
		"stimulus": "<p>Welcome to the Age Task. In this study you will complete an Implicit Association Test (IAT) in which you will be asked to sort pictures and words into groups as fast as you can.</p><p>Press any key to begin.</p>",
		"response": " ",
		"trial_type": "html-keyboard-response",
		"trial_index": 1,
		"time_elapsed": 1224,
		"internal_node_id": "0.0-1.0"
	},
	{
		"rt": 3428,
		"stimulus": "<p>Next, you will use the \"e\" and \"i\" computer keys to categorize items into groups as fast as you can. These are the four groups and the items that belong to each:<br><br><strong>Good</strong>:<br>Fabulous, Excitement, Glorious, Cheerful, Cherish, Enjoy, Delightful, Joyous<br><br><strong>Bad</strong>:<br>Humiliate, Evil, Grief, Yucky, Detest, Poison, Abuse, Despise<br><br><strong>Old</strong>:<br><img src='img/age/of1.jpg'></img>  <img src='img/age/of2.jpg'></img>  <img src='img/age/of3.jpg'></img>  <img src='img/age/om1.jpg'></img>  <img src='img/age/om2.jpg'></img>  <img src='img/age/om3.jpg'></img><br><br><strong>Young</strong>:<br><img src='img/age/yf1.jpg'></img>  <img src='img/age/yf4.jpg'></img>  <img src='img/age/yf5.jpg'></img>  <img src='img/age/ym2.jpg'></img>  <img src='img/age/ym3.jpg'></img>  <img src='img/age/ym5.jpg'></img><br><br>Press any key to continue.</p>",
		"response": "i",
		"trial_type": "html-keyboard-response",
		"trial_index": 2,
		"time_elapsed": 6158,
		"internal_node_id": "0.0-2.0"
	},
	{
		"rt": 2887,
		"stimulus": "<div style='position: absolute; top: 18%; left: 20%'><p>Press e for:<br><strong>OLD</strong></p></div><div style='position: absolute; top: 18%; right: 20%'><p>Press i for:<br><strong>YOUNG</strong></p></div><div style='position: relative; top: 42%; margin-left: auto; margin-right: auto'>Put a left finger on the <strong>e</strong> key for items that belong to the Old People category. Put a right finger on the <strong>i</strong> key for items that belong to the Young People category. Items will appear one at a time.<br><br>If you make a mistake, a red X will appear. Press the keys listed below to continue. Go as fast as you can while being accurate.<br><br> Press the any key when you are ready to start.</div>",
		"response": "e",
		"trial_type": "html-keyboard-response",
		"trial_index": 3,
		"time_elapsed": 10548,
		"internal_node_id": "0.0-3.0"
	},
	{
		"rt": 626,
		"stimulus": "img/age/om1.jpg",
		"response": "e",
		"correct": true,
		"iat_type": "practice",
		"trial_type": "iat-image",
		"trial_index": 4,
		"time_elapsed": 11179,
		"internal_node_id": "0.0-4.0-0.0"
	},
	{
		"rt": 632,
		"stimulus": "img/age/of1.jpg",
		"response": "e",
		"correct": true,
		"iat_type": "practice",
		"trial_type": "iat-image",
		"trial_index": 5,
		"time_elapsed": 11813,
		"internal_node_id": "0.0-4.0-0.1"
	},
	{
		"rt": 645,
		"stimulus": "img/age/yf1.jpg",
		"response": "i",
		"correct": true,
		"iat_type": "practice",
		"trial_type": "iat-image",
		"trial_index": 6,
		"time_elapsed": 12459,
		"internal_node_id": "0.0-4.0-0.2"
	},
	{
		"rt": 563,
		"stimulus": "img/age/ym2.jpg",
		"response": "i",
		"correct": true,
		"iat_type": "practice",
		"trial_type": "iat-image",
		"trial_index": 7,
		"time_elapsed": 13025,
		"internal_node_id": "0.0-4.0-0.3"
	},
	{
		"rt": 1968,
		"stimulus": "<div style='position: absolute; top: 18%; left: 20%'>Press E for:<br><strong>BAD</strong></div><div style='position: absolute; top: 18%; right: 20%'>Press I for:<br><strong>GOOD</strong></div><div style='position: relative; top: 42%; margin-left: auto; margin-right: auto'>Put a left finger on the <strong>e</strong> key for items that belong to the Bad category. Put a right finger on the <strong>i</strong> key for items that belong to the Good category. Items will appear one at a time.<br><br>If you make a mistake, a red X will appear. Press the keys listed below to continue. Go as fast as you can while being accurate.<br><br> Press the any key when you are ready to start.</div>",
		"response": "e",
		"trial_type": "html-keyboard-response",
		"trial_index": 8,
		"time_elapsed": 14995,
		"internal_node_id": "0.0-5.0"
	},
	{
		"rt": 4072,
		"stimulus": "Excitement",
		"response": "i",
		"correct": true,
		"iat_type": "practice",
		"trial_type": "iat-html",
		"trial_index": 9,
		"time_elapsed": 19070,
		"internal_node_id": "0.0-6.0-0.0"
	},
	{
		"rt": 3968,
		"stimulus": "Evil",
		"response": "e",
		"correct": true,
		"iat_type": "practice",
		"trial_type": "iat-html",
		"trial_index": 10,
		"time_elapsed": 23040,
		"internal_node_id": "0.0-6.0-0.1"
	},
	{
		"rt": 1335,
		"stimulus": "Humiliate",
		"response": "i",
		"correct": false,
		"iat_type": "practice",
		"trial_type": "iat-html",
		"trial_index": 11,
		"time_elapsed": 25084,
		"internal_node_id": "0.0-6.0-0.2"
	},
	{
		"rt": 853,
		"stimulus": "Fabulous",
		"response": "i",
		"correct": true,
		"iat_type": "practice",
		"trial_type": "iat-html",
		"trial_index": 12,
		"time_elapsed": 25938,
		"internal_node_id": "0.0-6.0-0.3"
	},
	{
		"rt": 4888,
		"stimulus": "<div style='position: absolute; top: 18%; left: 20%'>Press e for:<br> <strong>BAD</strong><br>or<br><strong>OLD</strong></div><div style='position: absolute; top: 18%; right: 20%'>Press i for:<br><strong>GOOD</strong><br>or<br><strong>YOUNG</strong></div><div style='position: relative; top: 42%; margin-left: auto; margin-right: auto'>Use <strong>e</strong> for Bad and for Old People<br>Use <strong>i</strong> for Good and for Young People<br>Each item belongs to only one category.<br><br>If you make a mistake, a red X will appear. Press the keys listed below to continue. Go as fast as you can while being accurate.<br><br> Press the any key when you are ready to start.</div>",
		"response": "e",
		"trial_type": "html-keyboard-response",
		"trial_index": 13,
		"time_elapsed": 30828,
		"internal_node_id": "0.0-7.0"
	},
	{
		"rt": 3061,
		"stimulus": "Fabulous",
		"response": "i",
		"correct": true,
		"iat_type": "practice",
		"trial_type": "iat-html",
		"trial_index": 14,
		"time_elapsed": 33890,
		"internal_node_id": "0.0-8.0-0.0"
	},
	{
		"rt": 872,
		"stimulus": "Excitement",
		"response": "i",
		"correct": true,
		"iat_type": "practice",
		"trial_type": "iat-html",
		"trial_index": 15,
		"time_elapsed": 34764,
		"internal_node_id": "0.0-8.0-0.1"
	},
	{
		"rt": 802,
		"stimulus": "Humiliate",
		"response": "e",
		"correct": true,
		"iat_type": "practice",
		"trial_type": "iat-html",
		"trial_index": 16,
		"time_elapsed": 35568,
		"internal_node_id": "0.0-8.0-0.2"
	},
	{
		"rt": 705,
		"stimulus": "img/age/om1.jpg",
		"response": "e",
		"correct": true,
		"iat_type": "practice",
		"trial_type": "iat-image",
		"trial_index": 17,
		"time_elapsed": 36274,
		"internal_node_id": "0.0-8.0-0.3"
	},
	{
		"rt": 722,
		"stimulus": "img/age/ym2.jpg",
		"response": "i",
		"correct": true,
		"iat_type": "practice",
		"trial_type": "iat-image",
		"trial_index": 18,
		"time_elapsed": 36998,
		"internal_node_id": "0.0-8.0-0.4"
	},
	{
		"rt": 1129,
		"stimulus": "Evil",
		"response": "e",
		"correct": true,
		"iat_type": "practice",
		"trial_type": "iat-html",
		"trial_index": 19,
		"time_elapsed": 38128,
		"internal_node_id": "0.0-8.0-0.5"
	},
	{
		"rt": 670,
		"stimulus": "img/age/of1.jpg",
		"response": "e",
		"correct": true,
		"iat_type": "practice",
		"trial_type": "iat-image",
		"trial_index": 20,
		"time_elapsed": 38800,
		"internal_node_id": "0.0-8.0-0.6"
	},
	{
		"rt": 654,
		"stimulus": "img/age/yf1.jpg",
		"response": "i",
		"correct": true,
		"iat_type": "practice",
		"trial_type": "iat-image",
		"trial_index": 21,
		"time_elapsed": 39456,
		"internal_node_id": "0.0-8.0-0.7"
	},
	{
		"rt": 7686,
		"stimulus": "<div style='position: absolute; top: 18%; left: 20%'>Press e for:<br> <strong>BAD</strong><br>or<br><strong>OLD</strong></div><div style='position: absolute; top: 18%; right: 20%'>Press i for:<br><strong>GOOD</strong><br>or<br><strong>YOUNG</strong></div><div style='position: relative; top: 42%; margin-left: auto; margin-right: auto'>This is the same as the previous part.<br>Use <strong>e</strong> for Bad and for Old People<br>Use <strong>i</strong> for Good and for Young People<br>Each item belongs to only one category.<br><br>If you make a mistake, a red X will appear. Press the keys listed below to continue. Go as fast as you can while being accurate.<br><br> Press the any key when you are ready to start.</div>",
		"response": "i",
		"trial_type": "html-keyboard-response",
		"trial_index": 22,
		"time_elapsed": 47144,
		"internal_node_id": "0.0-9.0"
	},
	{
		"rt": 4041,
		"stimulus": "img/age/yf1.jpg",
		"response": "i",
		"correct": true,
		"iat_type": "bad-old",
		"trial_type": "iat-image",
		"trial_index": 23,
		"time_elapsed": 51188,
		"internal_node_id": "0.0-10.0-0.0"
	},
	{
		"rt": 659,
		"stimulus": "img/age/ym2.jpg",
		"response": "i",
		"correct": true,
		"iat_type": "bad-old",
		"trial_type": "iat-image",
		"trial_index": 24,
		"time_elapsed": 51850,
		"internal_node_id": "0.0-10.0-0.1"
	},
	{
		"rt": 610,
		"stimulus": "img/age/om1.jpg",
		"response": "e",
		"correct": true,
		"iat_type": "bad-old",
		"trial_type": "iat-image",
		"trial_index": 25,
		"time_elapsed": 52462,
		"internal_node_id": "0.0-10.0-0.2"
	},
	{
		"rt": 981,
		"stimulus": "Humiliate",
		"response": "e",
		"correct": true,
		"iat_type": "bad-old",
		"trial_type": "iat-html",
		"trial_index": 26,
		"time_elapsed": 53445,
		"internal_node_id": "0.0-10.0-0.3"
	},
	{
		"rt": 952,
		"stimulus": "Excitement",
		"response": "i",
		"correct": true,
		"iat_type": "bad-old",
		"trial_type": "iat-html",
		"trial_index": 27,
		"time_elapsed": 54399,
		"internal_node_id": "0.0-10.0-0.4"
	},
	{
		"rt": 2195,
		"stimulus": "img/age/of1.jpg",
		"response": "e",
		"correct": true,
		"iat_type": "bad-old",
		"trial_type": "iat-image",
		"trial_index": 28,
		"time_elapsed": 56596,
		"internal_node_id": "0.0-10.0-0.5"
	},
	{
		"rt": 893,
		"stimulus": "Fabulous",
		"response": "i",
		"correct": true,
		"iat_type": "bad-old",
		"trial_type": "iat-html",
		"trial_index": 29,
		"time_elapsed": 57490,
		"internal_node_id": "0.0-10.0-0.6"
	},
	{
		"rt": 710,
		"stimulus": "Evil",
		"response": "e",
		"correct": true,
		"iat_type": "bad-old",
		"trial_type": "iat-html",
		"trial_index": 30,
		"time_elapsed": 58202,
		"internal_node_id": "0.0-10.0-0.7"
	},
	{
		"rt": 4048,
		"stimulus": "<div style='position: absolute; top: 18%; left: 20%'>Press e for:<br><strong>YOUNG</strong></div><div style='position: absolute; top: 18%; right: 20%'>Press i for:<br><strong>OLD</strong></div><div style='position: relative; top: 42%; margin-left: auto; margin-right: auto'>Watch out, the labels have changed positions!<br>Use <strong>e</strong> for Young People<br>Use <strong>i</strong> for Old People<br><br>If you make a mistake, a red X will appear. Press the keys listed below to continue. Go as fast as you can while being accurate.<br><br> Press the any key when you are ready to start.</div>",
		"response": " ",
		"trial_type": "html-keyboard-response",
		"trial_index": 31,
		"time_elapsed": 62251,
		"internal_node_id": "0.0-11.0"
	},
	{
		"rt": 1037,
		"stimulus": "img/age/om1.jpg",
		"response": "i",
		"correct": true,
		"iat_type": "practice",
		"trial_type": "iat-image",
		"trial_index": 32,
		"time_elapsed": 63290,
		"internal_node_id": "0.0-12.0-0.0"
	},
	{
		"rt": 560,
		"stimulus": "img/age/of1.jpg",
		"response": "i",
		"correct": true,
		"iat_type": "practice",
		"trial_type": "iat-image",
		"trial_index": 33,
		"time_elapsed": 63851,
		"internal_node_id": "0.0-12.0-0.1"
	},
	{
		"rt": 551,
		"stimulus": "img/age/ym2.jpg",
		"response": "e",
		"correct": true,
		"iat_type": "practice",
		"trial_type": "iat-image",
		"trial_index": 34,
		"time_elapsed": 64404,
		"internal_node_id": "0.0-12.0-0.2"
	},
	{
		"rt": 367,
		"stimulus": "img/age/yf1.jpg",
		"response": "e",
		"correct": true,
		"iat_type": "practice",
		"trial_type": "iat-image",
		"trial_index": 35,
		"time_elapsed": 64772,
		"internal_node_id": "0.0-12.0-0.3"
	},
	{
		"rt": 2227,
		"stimulus": "<div style='position: absolute; top: 18%; left: 20%'>Press e for:<br><strong>BAD</strong><br>or<br><strong>YOUNG</strong></div><div style='position: absolute; top: 18%; right: 20%'>Press i for:<br><strong>GOOD</strong><br>or<br><strong>OLD</strong></div><div style='position: relative; top: 42%; margin-left: auto; margin-right: auto'>Use <strong>e</strong> for Bad and for Young People<br>Use <strong>i</strong> for Good and for Old People<br><br>If you make a mistake, a red X will appear. Press the keys listed below to continue. Go as fast as you can while being accurate.<br><br> Press the any key when you are ready to start.</div>",
		"response": " ",
		"trial_type": "html-keyboard-response",
		"trial_index": 36,
		"time_elapsed": 67001,
		"internal_node_id": "0.0-13.0"
	},
	{
		"rt": 5429,
		"stimulus": "Fabulous",
		"response": "i",
		"correct": true,
		"iat_type": "practice",
		"trial_type": "iat-html",
		"trial_index": 37,
		"time_elapsed": 72431,
		"internal_node_id": "0.0-14.0-0.0"
	},
	{
		"rt": 933,
		"stimulus": "img/age/ym2.jpg",
		"response": "e",
		"correct": true,
		"iat_type": "practice",
		"trial_type": "iat-image",
		"trial_index": 38,
		"time_elapsed": 73365,
		"internal_node_id": "0.0-14.0-0.1"
	},
	{
		"rt": 720,
		"stimulus": "img/age/yf1.jpg",
		"response": "e",
		"correct": true,
		"iat_type": "practice",
		"trial_type": "iat-image",
		"trial_index": 39,
		"time_elapsed": 74087,
		"internal_node_id": "0.0-14.0-0.2"
	},
	{
		"rt": 592,
		"stimulus": "img/age/of1.jpg",
		"response": "i",
		"correct": true,
		"iat_type": "practice",
		"trial_type": "iat-image",
		"trial_index": 40,
		"time_elapsed": 74680,
		"internal_node_id": "0.0-14.0-0.3"
	},
	{
		"rt": 1774,
		"stimulus": "Evil",
		"response": "e",
		"correct": true,
		"iat_type": "practice",
		"trial_type": "iat-html",
		"trial_index": 41,
		"time_elapsed": 76455,
		"internal_node_id": "0.0-14.0-0.4"
	},
	{
		"rt": 900,
		"stimulus": "img/age/om1.jpg",
		"response": "i",
		"correct": true,
		"iat_type": "practice",
		"trial_type": "iat-image",
		"trial_index": 42,
		"time_elapsed": 77357,
		"internal_node_id": "0.0-14.0-0.5"
	},
	{
		"rt": 1583,
		"stimulus": "Humiliate",
		"response": "e",
		"correct": true,
		"iat_type": "practice",
		"trial_type": "iat-html",
		"trial_index": 43,
		"time_elapsed": 78941,
		"internal_node_id": "0.0-14.0-0.6"
	},
	{
		"rt": 1096,
		"stimulus": "Excitement",
		"response": "i",
		"correct": true,
		"iat_type": "practice",
		"trial_type": "iat-html",
		"trial_index": 44,
		"time_elapsed": 80039,
		"internal_node_id": "0.0-14.0-0.7"
	},
	{
		"rt": 1710,
		"stimulus": "<div style='position: absolute; top: 18%; left: 20%'>Press e for:<br><strong>Bad</strong><br>or<br><strong>Young People</strong></div><div style='position: absolute; top: 18%; right: 20%'>Press i for:<br><strong>Good</strong><br>or<br><strong>Old People</strong></div><div style='position: relative; top: 42%; margin-left: auto; margin-right: auto'>This is the same as the previous part<br>Use <strong>e</strong> for Bad and for Young People<br>Use <strong>i</strong> for Good and for Old People<br>Each item belongs to only one category<br><br>If you make a mistake, a red X will appear. Press the keys listed below to continue. Go as fast as you can while being accurate.<br><br> Press the any key when you are ready to start.</div>",
		"response": " ",
		"trial_type": "html-keyboard-response",
		"trial_index": 45,
		"time_elapsed": 81750,
		"internal_node_id": "0.0-15.0"
	},
	{
		"rt": 4289,
		"stimulus": "Fabulous",
		"response": "i",
		"correct": true,
		"iat_type": "bad-young",
		"trial_type": "iat-html",
		"trial_index": 46,
		"time_elapsed": 86041,
		"internal_node_id": "0.0-16.0-0.0"
	},
	{
		"rt": 646,
		"stimulus": "img/age/yf1.jpg",
		"response": "i",
		"correct": false,
		"iat_type": "bad-young",
		"trial_type": "iat-image",
		"trial_index": 47,
		"time_elapsed": 87130,
		"internal_node_id": "0.0-16.0-0.1"
	},
	{
		"rt": 3063,
		"stimulus": "Excitement",
		"response": "e",
		"correct": false,
		"iat_type": "bad-young",
		"trial_type": "iat-html",
		"trial_index": 48,
		"time_elapsed": 90717,
		"internal_node_id": "0.0-16.0-0.2"
	},
	{
		"rt": 855,
		"stimulus": "Evil",
		"response": "e",
		"correct": true,
		"iat_type": "bad-young",
		"trial_type": "iat-html",
		"trial_index": 49,
		"time_elapsed": 91574,
		"internal_node_id": "0.0-16.0-0.3"
	},
	{
		"rt": 792,
		"stimulus": "img/age/of1.jpg",
		"response": "i",
		"correct": true,
		"iat_type": "bad-young",
		"trial_type": "iat-image",
		"trial_index": 50,
		"time_elapsed": 92368,
		"internal_node_id": "0.0-16.0-0.4"
	},
	{
		"rt": 1368,
		"stimulus": "Humiliate",
		"response": "e",
		"correct": true,
		"iat_type": "bad-young",
		"trial_type": "iat-html",
		"trial_index": 51,
		"time_elapsed": 93737,
		"internal_node_id": "0.0-16.0-0.5"
	},
	{
		"rt": 583,
		"stimulus": "img/age/ym2.jpg",
		"response": "e",
		"correct": true,
		"iat_type": "bad-young",
		"trial_type": "iat-image",
		"trial_index": 52,
		"time_elapsed": 94321,
		"internal_node_id": "0.0-16.0-0.6"
	},
	{
		"rt": 632,
		"stimulus": "img/age/om1.jpg",
		"response": "i",
		"correct": true,
		"iat_type": "bad-young",
		"trial_type": "iat-image",
		"trial_index": 53,
		"time_elapsed": 94955,
		"internal_node_id": "0.0-16.0-0.7"
	},
	{
		"rt": 548,
		"stimulus": "img/age/of1.jpg",
		"response": "i",
		"correct": true,
		"iat_type": "bad-young",
		"trial_type": "iat-image",
		"trial_index": 54,
		"time_elapsed": 95505,
		"internal_node_id": "0.0-16.0-0.8"
	},
	{
		"rt": 1464,
		"stimulus": "Excitement",
		"response": "i",
		"correct": true,
		"iat_type": "bad-young",
		"trial_type": "iat-html",
		"trial_index": 55,
		"time_elapsed": 96971,
		"internal_node_id": "0.0-16.0-0.9"
	},
	{
		"rt": 608,
		"stimulus": "Fabulous",
		"response": "i",
		"correct": true,
		"iat_type": "bad-young",
		"trial_type": "iat-html",
		"trial_index": 56,
		"time_elapsed": 97581,
		"internal_node_id": "0.0-16.0-0.10"
	},
	{
		"rt": 674,
		"stimulus": "img/age/om1.jpg",
		"response": "i",
		"correct": true,
		"iat_type": "bad-young",
		"trial_type": "iat-image",
		"trial_index": 57,
		"time_elapsed": 98256,
		"internal_node_id": "0.0-16.0-0.11"
	},
	{
		"rt": 642,
		"stimulus": "img/age/ym2.jpg",
		"response": "e",
		"correct": true,
		"iat_type": "bad-young",
		"trial_type": "iat-image",
		"trial_index": 58,
		"time_elapsed": 98900,
		"internal_node_id": "0.0-16.0-0.12"
	},
	{
		"rt": 671,
		"stimulus": "img/age/yf1.jpg",
		"response": "e",
		"correct": true,
		"iat_type": "bad-young",
		"trial_type": "iat-image",
		"trial_index": 59,
		"time_elapsed": 99573,
		"internal_node_id": "0.0-16.0-0.13"
	},
	{
		"rt": 616,
		"stimulus": "Evil",
		"response": "e",
		"correct": true,
		"iat_type": "bad-young",
		"trial_type": "iat-html",
		"trial_index": 60,
		"time_elapsed": 100190,
		"internal_node_id": "0.0-16.0-0.14"
	},
	{
		"rt": 620,
		"stimulus": "Humiliate",
		"response": "e",
		"correct": true,
		"iat_type": "bad-young",
		"trial_type": "iat-html",
		"trial_index": 61,
		"time_elapsed": 100812,
		"internal_node_id": "0.0-16.0-0.15"
	},
	{
		"rt": 4799,
		"stimulus": "<p>You're done! Below is some information about how you performed.</p><p>When the pairs were BAD/YOUNG and GOOD/OLD, it took you an average of <strong>1025ms</strong> to respond.</p><p>When the pairs were BAD/OLD and GOOD/YOUNG, it took you an average of <strong>1380ms</strong> to respond.</p><p>Your D score, an index of performance that takes into account this difference and the overall level of variability in your responses, is <strong>-0.34</strong></p><p>For reference, the Project Implicit IAT website labels D scores above 0.15 as a slight bias, scores above 0.35 as a moderate bias, and scores above 0.65 a strong bias.</p>",
		"response": "n",
		"trial_type": "html-keyboard-response",
		"trial_index": 62,
		"time_elapsed": 105614,
		"internal_node_id": "0.0-17.0"
	}
]