[
	{
		"rt": 4770,
		"stimulus": "<div style=\"margin: 50px auto; width: 100px; height: 100px; background-color: rgb(46, 26, 122);\"></div>",
		"slider_start": 50,
		"response": 15,
		"trial_type": "html-slider-response",
		"trial_index": 0,
		"time_elapsed": 4775,
		"internal_node_id": "0.0-0.0"
	},
	{
		"rt": null,
		"stimulus": "<div style=\"margin: 50px auto; width: 100px; height: 100px; background-color: rgb(29, 23, 138)\"></div>",
		"slider_start": 10,
		"response": null,
		"trial_type": "html-slider-response",
		"trial_index": 1,
		"time_elapsed": 10028,
		"internal_node_id": "0.0-1.0"
	},
	{
		"rt": 4558,
		"stimulus": "<div style=\"margin: 50px auto; width: 100px; height: 100px; background-color: rgb(63, 17, 129)\"></div>",
		"slider_start": 50,
		"response": 68,
		"trial_type": "html-slider-response",
		"trial_index": 2,
		"time_elapsed": 14840,
		"internal_node_id": "0.0-2.0"
	}
]