[
	{
		"success": true,
		"timeout": false,
		"failed_images": [],
		"failed_audio": [],
		"failed_video": [],
		"trial_type": "preload",
		"trial_index": 0,
		"time_elapsed": 5,
		"internal_node_id": "0.0-0.0"
	},
	{
		"init_locations": [
			{
				"src": "img/happy_face_3.jpg",
				"x": 465,
				"y": 0
			},
			{
				"src": "img/happy_face_1.jpg",
				"x": -125,
				"y": 380
			},
			{
				"src": "img/sad_face_2.jpg",
				"x": 465,
				"y": 380
			},
			{
				"src": "img/sad_face_4.jpg",
				"x": -125,
				"y": 0
			}
		],
		"moves": [
			{
				"src": "img/happy_face_1.jpg",
				"x": 27,
				"y": 285
			},
			{
				"src": "img/sad_face_2.jpg",
				"x": 241,
				"y": 305
			},
			{
				"src": "img/happy_face_3.jpg",
				"x": 44,
				"y": 103
			},
			{
				"src": "img/sad_face_4.jpg",
				"x": 231,
				"y": 133
			}
		],
		"final_locations": [
			{
				"src": "img/happy_face_3.jpg",
				"x": 44,
				"y": 103
			},
			{
				"src": "img/happy_face_1.jpg",
				"x": 27,
				"y": 285
			},
			{
				"src": "img/sad_face_2.jpg",
				"x": 241,
				"y": 305
			},
			{
				"src": "img/sad_face_4.jpg",
				"x": 231,
				"y": 133
			}
		],
		"rt": 17721.89999999106,
		"trial_type": "free-sort",
		"trial_index": 1,
		"time_elapsed": 17728,
		"internal_node_id": "0.0-1.0"
	},
	{
		"init_locations": [
			{
				"src": "img/happy_face_1.jpg",
				"x": 590,
				"y": 0
			},
			{
				"src": "img/sad_face_4.jpg",
				"x": -250,
				"y": 280
			},
			{
				"src": "img/happy_face_3.jpg",
				"x": 590,
				"y": 280
			},
			{
				"src": "img/sad_face_2.jpg",
				"x": -250,
				"y": 0
			}
		],
		"moves": [
			{
				"src": "img/sad_face_4.jpg",
				"x": 46,
				"y": 218
			},
			{
				"src": "img/sad_face_2.jpg",
				"x": 42,
				"y": 42
			},
			{
				"src": "img/happy_face_1.jpg",
				"x": 266,
				"y": 39
			},
			{
				"src": "img/happy_face_3.jpg",
				"x": 259,
				"y": 221
			},
			{
				"src": "img/happy_face_3.jpg",
				"x": 221,
				"y": 221
			}
		],
		"final_locations": [
			{
				"src": "img/happy_face_1.jpg",
				"x": 266,
				"y": 39
			},
			{
				"src": "img/sad_face_4.jpg",
				"x": 46,
				"y": 218
			},
			{
				"src": "img/happy_face_3.jpg",
				"x": 221,
				"y": 221
			},
			{
				"src": "img/sad_face_2.jpg",
				"x": 42,
				"y": 42
			}
		],
		"rt": 17996.10000000894,
		"trial_type": "free-sort",
		"trial_index": 2,
		"time_elapsed": 35725,
		"internal_node_id": "0.0-2.0"
	},
	{
		"rt": null,
		"response": null,
		"trial_type": "canvas-keyboard-response",
		"trial_index": 3,
		"time_elapsed": 40732,
		"internal_node_id": "0.0-3.0"
	},
	{
		"init_locations": [
			{
				"src": "img/1.gif",
				"x": 535,
				"y": 0
			},
			{
				"src": "img/3.gif",
				"x": -125,
				"y": 410
			},
			{
				"src": "img/2.gif",
				"x": 535,
				"y": 410
			}
		],
		"moves": [
			{
				"src": "img/1.gif",
				"x": 68,
				"y": 24
			},
			{
				"src": "img/3.gif",
				"x": 195,
				"y": 261
			},
			{
				"src": "img/2.gif",
				"x": 335,
				"y": 357
			}
		],
		"final_locations": [
			{
				"src": "img/1.gif",
				"x": 68,
				"y": 24
			},
			{
				"src": "img/3.gif",
				"x": 195,
				"y": 261
			},
			{
				"src": "img/2.gif",
				"x": 335,
				"y": 357
			}
		],
		"rt": 7584.29999999702,
		"trial_type": "free-sort",
		"trial_index": 4,
		"time_elapsed": 48318,
		"internal_node_id": "0.0-4.0"
	},
	{
		"init_locations": [
			{
				"src": "img/4.gif",
				"x": 480,
				"y": 198
			},
			{
				"src": "img/5.gif",
				"x": 277,
				"y": 327
			},
			{
				"src": "img/6.gif",
				"x": 91,
				"y": 257
			}
		],
		"moves": [
			{
				"src": "img/5.gif",
				"x": 289,
				"y": 341
			},
			{
				"src": "img/6.gif",
				"x": 115,
				"y": 496
			},
			{
				"src": "img/5.gif",
				"x": 300,
				"y": 503
			},
			{
				"src": "img/4.gif",
				"x": 493,
				"y": 501
			}
		],
		"final_locations": [
			{
				"src": "img/4.gif",
				"x": 493,
				"y": 501
			},
			{
				"src": "img/5.gif",
				"x": 300,
				"y": 503
			},
			{
				"src": "img/6.gif",
				"x": 115,
				"y": 496
			}
		],
		"rt": 15934.5,
		"trial_type": "free-sort",
		"trial_index": 5,
		"time_elapsed": 64253,
		"internal_node_id": "0.0-5.0"
	}
]