[
	{
		"rt": 5537,
		"response": {
			"Vegetables": "Strongly Agree",
			"Fruit": "Agree"
		},
		"question_order": [
			1,
			0
		],
		"trial_type": "survey-multi-choice",
		"trial_index": 0,
		"time_elapsed": 5540,
		"internal_node_id": "0.0-0.0"
	},
	{
		"rt": 4989,
		"response": {
			"Q0": "Agree",
			"Q1": "Strongly Agree"
		},
		"question_order": [
			0,
			1
		],
		"trial_type": "survey-multi-choice",
		"trial_index": 1,
		"time_elapsed": 10537,
		"internal_node_id": "0.0-1.0"
	}
]