[
	{
		"rt": 15142,
		"response": {
			"Age": "21",
			"BirthLocation": "North Pole"
		},
		"trial_type": "survey-text",
		"trial_index": 0,
		"time_elapsed": 15151,
		"internal_node_id": "0.0-0.0"
	},
	{
		"rt": 15441,
		"response": {
			"Q0": "It all started on a dark winter night."
		},
		"trial_type": "survey-text",
		"trial_index": 1,
		"time_elapsed": 30599,
		"internal_node_id": "0.0-1.0"
	}
]