[
	{
		"rt": 7822.300000011921,
		"response": "7",
		"correct": true,
		"grid": [
			[
				1,
				1,
				1,
				1
			]
		],
		"target": [
			0,
			2
		],
		"trial_type": "serial-reaction-time",
		"trial_index": 0,
		"time_elapsed": 7824,
		"internal_node_id": "0.0-0.0-0.0"
	},
	{
		"rt": 2871,
		"response": "3",
		"correct": true,
		"grid": [
			[
				1,
				1,
				1,
				1
			]
		],
		"target": [
			0,
			0
		],
		"trial_type": "serial-reaction-time",
		"trial_index": 1,
		"time_elapsed": 10697,
		"internal_node_id": "0.0-0.0-1.0"
	},
	{
		"rt": 1160.800000011921,
		"response": "9",
		"correct": true,
		"grid": [
			[
				1,
				1,
				1,
				1
			]
		],
		"target": [
			0,
			3
		],
		"trial_type": "serial-reaction-time",
		"trial_index": 2,
		"time_elapsed": 11861,
		"internal_node_id": "0.0-0.0-0.1"
	},
	{
		"rt": 1700.9000000059605,
		"response": "5",
		"correct": true,
		"grid": [
			[
				1,
				1,
				1,
				1
			]
		],
		"target": [
			0,
			1
		],
		"trial_type": "serial-reaction-time",
		"trial_index": 3,
		"time_elapsed": 13564,
		"internal_node_id": "0.0-0.0-1.1"
	},
	{
		"rt": 994.6000000089407,
		"response": "9",
		"correct": true,
		"grid": [
			[
				1,
				1,
				1,
				1
			]
		],
		"target": [
			0,
			3
		],
		"trial_type": "serial-reaction-time",
		"trial_index": 4,
		"time_elapsed": 14561,
		"internal_node_id": "0.0-0.0-0.2"
	},
	{
		"rt": 2021.7000000029802,
		"response": "5",
		"correct": true,
		"grid": [
			[
				1,
				1,
				1,
				1
			]
		],
		"target": [
			0,
			1
		],
		"trial_type": "serial-reaction-time",
		"trial_index": 5,
		"time_elapsed": 16585,
		"internal_node_id": "0.0-0.0-1.2"
	},
	{
		"rt": 1386,
		"response": "7",
		"correct": true,
		"grid": [
			[
				1,
				1,
				1,
				1
			]
		],
		"target": [
			0,
			2
		],
		"trial_type": "serial-reaction-time",
		"trial_index": 6,
		"time_elapsed": 17973,
		"internal_node_id": "0.0-0.0-0.3"
	},
	{
		"rt": 961.5999999940395,
		"response": "3",
		"correct": true,
		"grid": [
			[
				1,
				1,
				1,
				1
			]
		],
		"target": [
			0,
			0
		],
		"trial_type": "serial-reaction-time",
		"trial_index": 7,
		"time_elapsed": 18937,
		"internal_node_id": "0.0-0.0-1.3"
	},
	{
		"rt": 966,
		"response": "9",
		"correct": true,
		"grid": [
			[
				1,
				1,
				1,
				1
			]
		],
		"target": [
			0,
			3
		],
		"trial_type": "serial-reaction-time",
		"trial_index": 8,
		"time_elapsed": 19905,
		"internal_node_id": "0.0-0.0-0.4"
	},
	{
		"rt": 1305.2000000029802,
		"response": "5",
		"correct": true,
		"grid": [
			[
				1,
				1,
				1,
				1
			]
		],
		"target": [
			0,
			1
		],
		"trial_type": "serial-reaction-time",
		"trial_index": 9,
		"time_elapsed": 21213,
		"internal_node_id": "0.0-0.0-1.4"
	},
	{
		"rt": 1302.300000011921,
		"response": "7",
		"correct": true,
		"grid": [
			[
				1,
				1,
				1,
				1
			]
		],
		"target": [
			0,
			2
		],
		"trial_type": "serial-reaction-time",
		"trial_index": 10,
		"time_elapsed": 22517,
		"internal_node_id": "0.0-0.0-0.5"
	},
	{
		"rt": 970.1999999880791,
		"response": "3",
		"correct": true,
		"grid": [
			[
				1,
				1,
				1,
				1
			]
		],
		"target": [
			0,
			0
		],
		"trial_type": "serial-reaction-time",
		"trial_index": 11,
		"time_elapsed": 23488,
		"internal_node_id": "0.0-0.0-1.5"
	},
	{
		"rt": 994.7000000029802,
		"response": "7",
		"correct": true,
		"grid": [
			[
				1,
				1,
				1,
				1
			]
		],
		"target": [
			0,
			2
		],
		"trial_type": "serial-reaction-time",
		"trial_index": 12,
		"time_elapsed": 24484,
		"internal_node_id": "0.0-0.0-0.6"
	},
	{
		"rt": 870.5,
		"response": "3",
		"correct": true,
		"grid": [
			[
				1,
				1,
				1,
				1
			]
		],
		"target": [
			0,
			0
		],
		"trial_type": "serial-reaction-time",
		"trial_index": 13,
		"time_elapsed": 25356,
		"internal_node_id": "0.0-0.0-1.6"
	},
	{
		"rt": 890.5,
		"response": "9",
		"correct": true,
		"grid": [
			[
				1,
				1,
				1,
				1
			]
		],
		"target": [
			0,
			3
		],
		"trial_type": "serial-reaction-time",
		"trial_index": 14,
		"time_elapsed": 26248,
		"internal_node_id": "0.0-0.0-0.7"
	},
	{
		"rt": 1162.2000000029802,
		"response": "5",
		"correct": true,
		"grid": [
			[
				1,
				1,
				1,
				1
			]
		],
		"target": [
			0,
			1
		],
		"trial_type": "serial-reaction-time",
		"trial_index": 15,
		"time_elapsed": 27412,
		"internal_node_id": "0.0-0.0-1.7"
	},
	{
		"rt": 926.2000000029802,
		"response": "9",
		"correct": true,
		"grid": [
			[
				1,
				1,
				1,
				1
			]
		],
		"target": [
			0,
			3
		],
		"trial_type": "serial-reaction-time",
		"trial_index": 16,
		"time_elapsed": 28340,
		"internal_node_id": "0.0-0.0-0.8"
	},
	{
		"rt": 1110.5,
		"response": "5",
		"correct": true,
		"grid": [
			[
				1,
				1,
				1,
				1
			]
		],
		"target": [
			0,
			1
		],
		"trial_type": "serial-reaction-time",
		"trial_index": 17,
		"time_elapsed": 29452,
		"internal_node_id": "0.0-0.0-1.8"
	},
	{
		"rt": 897.9000000059605,
		"response": "7",
		"correct": true,
		"grid": [
			[
				1,
				1,
				1,
				1
			]
		],
		"target": [
			0,
			2
		],
		"trial_type": "serial-reaction-time",
		"trial_index": 18,
		"time_elapsed": 30352,
		"internal_node_id": "0.0-0.0-0.9"
	},
	{
		"rt": 878.3000000119209,
		"response": "3",
		"correct": true,
		"grid": [
			[
				1,
				1,
				1,
				1
			]
		],
		"target": [
			0,
			0
		],
		"trial_type": "serial-reaction-time",
		"trial_index": 19,
		"time_elapsed": 31232,
		"internal_node_id": "0.0-0.0-1.9"
	},
	{
		"rt": 1813.9000000059605,
		"response": "7",
		"correct": true,
		"grid": [
			[
				1,
				1,
				1,
				1
			]
		],
		"target": [
			0,
			2
		],
		"trial_type": "serial-reaction-time",
		"trial_index": 20,
		"time_elapsed": 33048,
		"internal_node_id": "0.0-0.0-0.10"
	},
	{
		"rt": 786.3999999910593,
		"response": "3",
		"correct": true,
		"grid": [
			[
				1,
				1,
				1,
				1
			]
		],
		"target": [
			0,
			0
		],
		"trial_type": "serial-reaction-time",
		"trial_index": 21,
		"time_elapsed": 33836,
		"internal_node_id": "0.0-0.0-1.10"
	},
	{
		"rt": 918.6000000089407,
		"response": "9",
		"correct": true,
		"grid": [
			[
				1,
				1,
				1,
				1
			]
		],
		"target": [
			0,
			3
		],
		"trial_type": "serial-reaction-time",
		"trial_index": 22,
		"time_elapsed": 34756,
		"internal_node_id": "0.0-0.0-0.11"
	},
	{
		"rt": 1138.6000000089407,
		"response": "5",
		"correct": true,
		"grid": [
			[
				1,
				1,
				1,
				1
			]
		],
		"target": [
			0,
			1
		],
		"trial_type": "serial-reaction-time",
		"trial_index": 23,
		"time_elapsed": 35896,
		"internal_node_id": "0.0-0.0-1.11"
	},
	{
		"rt": 878.4000000059605,
		"response": "9",
		"correct": true,
		"grid": [
			[
				1,
				1,
				1,
				1
			]
		],
		"target": [
			0,
			3
		],
		"trial_type": "serial-reaction-time",
		"trial_index": 24,
		"time_elapsed": 36776,
		"internal_node_id": "0.0-0.0-0.12"
	},
	{
		"rt": 1238.7000000029802,
		"response": "5",
		"correct": true,
		"grid": [
			[
				1,
				1,
				1,
				1
			]
		],
		"target": [
			0,
			1
		],
		"trial_type": "serial-reaction-time",
		"trial_index": 25,
		"time_elapsed": 38016,
		"internal_node_id": "0.0-0.0-1.12"
	},
	{
		"rt": 1786.6000000089407,
		"response": "7",
		"correct": true,
		"grid": [
			[
				1,
				1,
				1,
				1
			]
		],
		"target": [
			0,
			2
		],
		"trial_type": "serial-reaction-time",
		"trial_index": 26,
		"time_elapsed": 39804,
		"internal_node_id": "0.0-0.0-0.13"
	},
	{
		"rt": 1738.3999999910593,
		"response": "3",
		"correct": true,
		"grid": [
			[
				1,
				1,
				1,
				1
			]
		],
		"target": [
			0,
			0
		],
		"trial_type": "serial-reaction-time",
		"trial_index": 27,
		"time_elapsed": 41544,
		"internal_node_id": "0.0-0.0-1.13"
	},
	{
		"rt": 1706.4000000059605,
		"response": "7",
		"correct": true,
		"grid": [
			[
				1,
				1,
				1,
				1
			]
		],
		"target": [
			0,
			2
		],
		"trial_type": "serial-reaction-time",
		"trial_index": 28,
		"time_elapsed": 43252,
		"internal_node_id": "0.0-0.0-0.14"
	},
	{
		"rt": 1026.5,
		"response": "3",
		"correct": true,
		"grid": [
			[
				1,
				1,
				1,
				1
			]
		],
		"target": [
			0,
			0
		],
		"trial_type": "serial-reaction-time",
		"trial_index": 29,
		"time_elapsed": 44279,
		"internal_node_id": "0.0-0.0-1.14"
	},
	{
		"rt": 946.7000000029802,
		"response": "9",
		"correct": true,
		"grid": [
			[
				1,
				1,
				1,
				1
			]
		],
		"target": [
			0,
			3
		],
		"trial_type": "serial-reaction-time",
		"trial_index": 30,
		"time_elapsed": 45228,
		"internal_node_id": "0.0-0.0-0.15"
	},
	{
		"rt": 1014.8999999910593,
		"response": "5",
		"correct": true,
		"grid": [
			[
				1,
				1,
				1,
				1
			]
		],
		"target": [
			0,
			1
		],
		"trial_type": "serial-reaction-time",
		"trial_index": 31,
		"time_elapsed": 46244,
		"internal_node_id": "0.0-0.0-1.15"
	},
	{
		"rt": 1342.0999999940395,
		"response": "7",
		"correct": true,
		"grid": [
			[
				1,
				1,
				1,
				1
			]
		],
		"target": [
			0,
			2
		],
		"trial_type": "serial-reaction-time",
		"trial_index": 32,
		"time_elapsed": 47587,
		"internal_node_id": "0.0-0.0-0.16"
	},
	{
		"rt": 946.9000000059605,
		"response": "3",
		"correct": true,
		"grid": [
			[
				1,
				1,
				1,
				1
			]
		],
		"target": [
			0,
			0
		],
		"trial_type": "serial-reaction-time",
		"trial_index": 33,
		"time_elapsed": 48536,
		"internal_node_id": "0.0-0.0-1.16"
	},
	{
		"rt": 978.5,
		"response": "9",
		"correct": true,
		"grid": [
			[
				1,
				1,
				1,
				1
			]
		],
		"target": [
			0,
			3
		],
		"trial_type": "serial-reaction-time",
		"trial_index": 34,
		"time_elapsed": 49515,
		"internal_node_id": "0.0-0.0-0.17"
	},
	{
		"rt": 1146.5,
		"response": "5",
		"correct": true,
		"grid": [
			[
				1,
				1,
				1,
				1
			]
		],
		"target": [
			0,
			1
		],
		"trial_type": "serial-reaction-time",
		"trial_index": 35,
		"time_elapsed": 50663,
		"internal_node_id": "0.0-0.0-1.17"
	},
	{
		"rt": 910.5,
		"response": "7",
		"correct": true,
		"grid": [
			[
				1,
				1,
				1,
				1
			]
		],
		"target": [
			0,
			2
		],
		"trial_type": "serial-reaction-time",
		"trial_index": 36,
		"time_elapsed": 51575,
		"internal_node_id": "0.0-0.0-0.18"
	},
	{
		"rt": 802.5,
		"response": "3",
		"correct": true,
		"grid": [
			[
				1,
				1,
				1,
				1
			]
		],
		"target": [
			0,
			0
		],
		"trial_type": "serial-reaction-time",
		"trial_index": 37,
		"time_elapsed": 52379,
		"internal_node_id": "0.0-0.0-1.18"
	},
	{
		"rt": 918.5,
		"response": "9",
		"correct": true,
		"grid": [
			[
				1,
				1,
				1,
				1
			]
		],
		"target": [
			0,
			3
		],
		"trial_type": "serial-reaction-time",
		"trial_index": 38,
		"time_elapsed": 53299,
		"internal_node_id": "0.0-0.0-0.19"
	},
	{
		"rt": 1054.7999999970198,
		"response": "5",
		"correct": true,
		"grid": [
			[
				1,
				1,
				1,
				1
			]
		],
		"target": [
			0,
			1
		],
		"trial_type": "serial-reaction-time",
		"trial_index": 39,
		"time_elapsed": 54355,
		"internal_node_id": "0.0-0.0-1.19"
	}
]