[
	{
		"rt": 4488.5999999940395,
		"stimulus": "<p style=\"color: red; font-size: 48px; font-weight: bold;\">GREEN</p>",
		"response": "n",
		"trial_type": "html-keyboard-response",
		"trial_index": 0,
		"time_elapsed": 4490,
		"internal_node_id": "0.0-0.0"
	},
	{
		"rt": 3055.5,
		"stimulus": "<p style=\"color: red; font-size: 48px; font-weight: bold;\">RED</p>",
		"response": "y",
		"trial_type": "html-keyboard-response",
		"trial_index": 1,
		"time_elapsed": 7799,
		"internal_node_id": "0.0-1.0"
	},
	{
		"rt": null,
		"stimulus": "<p style=\"color: orange; font-size: 48px; font-weight: bold;\">BLUE</p>",
		"response": null,
		"trial_type": "html-keyboard-response",
		"trial_index": 2,
		"time_elapsed": 10061,
		"internal_node_id": "0.0-2.0"
	}
]