[
	{
		"success": true,
		"timeout": false,
		"failed_images": [],
		"failed_audio": [],
		"failed_video": [],
		"trial_type": "preload",
		"trial_index": 0,
		"time_elapsed": 4,
		"internal_node_id": "0.0-0.0"
	},
	{
		"rt": null,
		"stimulus": "img/happy_face_1.jpg",
		"slider_start": 50,
		"response": null,
		"trial_type": "image-slider-response",
		"trial_index": 1,
		"time_elapsed": 1264,
		"internal_node_id": "0.0-1.0-0.0"
	},
	{
		"rt": null,
		"stimulus": "img/happy_face_2.jpg",
		"slider_start": 50,
		"response": null,
		"trial_type": "image-slider-response",
		"trial_index": 2,
		"time_elapsed": 2270,
		"internal_node_id": "0.0-1.0-0.1"
	},
	{
		"rt": null,
		"stimulus": "img/happy_face_3.jpg",
		"slider_start": 50,
		"response": null,
		"trial_type": "image-slider-response",
		"trial_index": 3,
		"time_elapsed": 3277,
		"internal_node_id": "0.0-1.0-0.2"
	},
	{
		"rt": null,
		"stimulus": "img/happy_face_4.jpg",
		"slider_start": 50,
		"response": null,
		"trial_type": "image-slider-response",
		"trial_index": 4,
		"time_elapsed": 4282,
		"internal_node_id": "0.0-1.0-0.3"
	},
	{
		"rt": 5161,
		"stimulus": "img/happy_face_1.jpg",
		"slider_start": 50,
		"response": 80,
		"trial_type": "image-slider-response",
		"trial_index": 5,
		"time_elapsed": 9447,
		"internal_node_id": "0.0-2.0"
	},
	{
		"rt": 2948.7000000029802,
		"stimulus": "img/happy_face_2.jpg",
		"slider_start": 80,
		"response": 66,
		"trial_type": "image-slider-response",
		"trial_index": 6,
		"time_elapsed": 12654,
		"internal_node_id": "0.0-3.0"
	},
	{
		"rt": 2921,
		"stimulus": "img/happy_face_3.jpg",
		"slider_start": 50,
		"response": 73,
		"trial_type": "image-slider-response",
		"trial_index": 7,
		"time_elapsed": 15829,
		"internal_node_id": "0.0-4.0"
	}
]