[
	{
		"rt": 5906.5,
		"response": {
			"Vegetables": 3,
			"Fruit": 4
		},
		"question_order": [
			0,
			1
		],
		"trial_type": "survey-likert",
		"trial_index": 0,
		"time_elapsed": 5909,
		"internal_node_id": "0.0-0.0"
	},
	{
		"rt": 13059.59999999404,
		"response": {
			"Q4": 4,
			"Q2": 3,
			"Q3": 2,
			"Q1": 1,
			"Q0": 0
		},
		"question_order": [
			4,
			2,
			3,
			1,
			0
		],
		"trial_type": "survey-likert",
		"trial_index": 1,
		"time_elapsed": 18973,
		"internal_node_id": "0.0-1.0"
	}
]