[
	{
		"success": true,
		"timeout": false,
		"failed_images": [],
		"failed_audio": [],
		"failed_video": [],
		"trial_type": "preload",
		"trial_index": 0,
		"time_elapsed": 8,
		"internal_node_id": "0.0-0.0"
	},
	{
		"rt": 4740,
		"stimulus": "<p>The previous trial was an automatic preload trial.</p><p>This trial loaded all stimuli files that can be automatically preloaded<br>based on the main jsPsych experiment timeline.</p><p>In this example experiment, there are two trials in which the stimuli can be automatically preloaded.</p><p>The stimuli for these trials have finished loading.</p>",
		"response": 0,
		"trial_type": "html-button-response",
		"trial_index": 1,
		"time_elapsed": 4749,
		"internal_node_id": "0.0-1.0"
	},
	{
		"rt": 830,
		"stimulus": "img/happy_face_1.jpg",
		"response": 0,
		"trial_type": "image-button-response",
		"trial_index": 2,
		"time_elapsed": 5582,
		"internal_node_id": "0.0-2.0"
	},
	{
		"rt": 1045,
		"stimulus": [
			"sound/speech_green.mp3"
		],
		"response": 0,
		"trial_type": "audio-button-response",
		"trial_index": 3,
		"time_elapsed": 6632,
		"internal_node_id": "0.0-3.0"
	},
	{
		"rt": 998,
		"stimulus": "<p>The next trial is a manual preload trial.</p><p>Manual preloading allows you to load specific files, for instance if you want to load files in batches,<br>or if the stimuli cannot be automatically preloaded (because you are using timeline variables or dynamic parameters).</p><p>In the next preload example, the files in the <i>images</i> array do not exist, so the preload will fail.</p><p>The <i>continue_after_error</i> parameter is set to <i>true</i>, so the experiment will continue despite the preload failure.</p>",
		"response": 0,
		"trial_type": "html-button-response",
		"trial_index": 4,
		"time_elapsed": 7632,
		"internal_node_id": "0.0-4.0"
	},
	{
		"success": false,
		"timeout": false,
		"failed_images": [
			"http://127.0.0.1:5500/examples/BAD_IMAGE_NAME_3",
			"http://127.0.0.1:5500/examples/BAD_IMAGE_NAME_3",
			"http://127.0.0.1:5500/examples/BAD_IMAGE_NAME_3"
		],
		"failed_audio": [],
		"failed_video": [],
		"trial_type": "preload",
		"trial_index": 5,
		"time_elapsed": 7642,
		"internal_node_id": "0.0-5.0"
	},
	{
		"rt": 1640,
		"stimulus": "<p>There was a problem loading one or more files.</p><p>The files that failed to load are listed in the data for the previous trial.</p>",
		"response": 0,
		"trial_type": "html-button-response",
		"trial_index": 6,
		"time_elapsed": 9282,
		"internal_node_id": "0.0-6.0"
	},
	{
		"rt": 1748,
		"stimulus": "<p>The next trial is another manual preload trial.</p><p>It has been set up with bad file names, so it will also fail.</p><p>This time the <i>continue_after_error</i> parameter is set to <i>false</i>, so the experiment will stop with an error message.</p><p>The next trial will also show details about the errors (<i>show_detailed_errors: true</i>).</p>",
		"response": 0,
		"trial_type": "html-button-response",
		"trial_index": 7,
		"time_elapsed": 11032,
		"internal_node_id": "0.0-7.0"
	},
	{
		"success": false,
		"timeout": false,
		"failed_images": [
			"http://127.0.0.1:5500/examples/BAD_IMAGE_NAME"
		],
		"failed_audio": [],
		"failed_video": [],
		"trial_type": "preload",
		"trial_index": 8,
		"time_elapsed": 11050,
		"internal_node_id": "0.0-8.0"
	},
	{
		"rt": 1079,
		"stimulus": "<p>All files loaded successfully!</p>",
		"response": 0,
		"trial_type": "html-button-response",
		"trial_index": 9,
		"time_elapsed": 13132,
		"internal_node_id": "0.0-9.0"
	}
]