[
	{
		"success": true,
		"timeout": false,
		"failed_images": [],
		"failed_audio": [],
		"failed_video": [],
		"trial_type": "preload",
		"trial_index": 0,
		"time_elapsed": 4,
		"internal_node_id": "0.0-0.0"
	},
	{
		"rt": null,
		"stimulus": "img/happy_face_1.jpg",
		"response": null,
		"trial_type": "image-keyboard-response",
		"trial_index": 1,
		"time_elapsed": 308,
		"internal_node_id": "0.0-1.0-0.0"
	},
	{
		"rt": null,
		"stimulus": "img/happy_face_2.jpg",
		"response": null,
		"trial_type": "image-keyboard-response",
		"trial_index": 2,
		"time_elapsed": 611,
		"internal_node_id": "0.0-1.0-0.1"
	},
	{
		"rt": null,
		"stimulus": "img/happy_face_3.jpg",
		"response": null,
		"trial_type": "image-keyboard-response",
		"trial_index": 3,
		"time_elapsed": 918,
		"internal_node_id": "0.0-1.0-0.2"
	},
	{
		"rt": null,
		"stimulus": "img/happy_face_4.jpg",
		"response": null,
		"trial_type": "image-keyboard-response",
		"trial_index": 4,
		"time_elapsed": 1224,
		"internal_node_id": "0.0-1.0-0.3"
	},
	{
		"rt": null,
		"stimulus": "img/happy_face_1.jpg",
		"response": null,
		"trial_type": "image-keyboard-response",
		"trial_index": 5,
		"time_elapsed": 1527,
		"internal_node_id": "0.0-1.0-0.4"
	},
	{
		"rt": null,
		"stimulus": "img/happy_face_2.jpg",
		"response": null,
		"trial_type": "image-keyboard-response",
		"trial_index": 6,
		"time_elapsed": 1832,
		"internal_node_id": "0.0-1.0-0.5"
	},
	{
		"rt": null,
		"stimulus": "img/happy_face_3.jpg",
		"response": null,
		"trial_type": "image-keyboard-response",
		"trial_index": 7,
		"time_elapsed": 2140,
		"internal_node_id": "0.0-1.0-0.6"
	},
	{
		"rt": null,
		"stimulus": "img/happy_face_4.jpg",
		"response": null,
		"trial_type": "image-keyboard-response",
		"trial_index": 8,
		"time_elapsed": 2446,
		"internal_node_id": "0.0-1.0-0.7"
	},
	{
		"rt": null,
		"stimulus": "img/happy_face_1.jpg",
		"response": null,
		"trial_type": "image-keyboard-response",
		"trial_index": 9,
		"time_elapsed": 2755,
		"internal_node_id": "0.0-1.0-0.8"
	},
	{
		"rt": null,
		"stimulus": "img/happy_face_2.jpg",
		"response": null,
		"trial_type": "image-keyboard-response",
		"trial_index": 10,
		"time_elapsed": 3057,
		"internal_node_id": "0.0-1.0-0.9"
	},
	{
		"rt": null,
		"stimulus": "img/happy_face_3.jpg",
		"response": null,
		"trial_type": "image-keyboard-response",
		"trial_index": 11,
		"time_elapsed": 3365,
		"internal_node_id": "0.0-1.0-0.10"
	},
	{
		"rt": null,
		"stimulus": "img/happy_face_4.jpg",
		"response": null,
		"trial_type": "image-keyboard-response",
		"trial_index": 12,
		"time_elapsed": 3672,
		"internal_node_id": "0.0-1.0-0.11"
	},
	{
		"rt": 2350.7000000029802,
		"stimulus": "img/happy_face_1.jpg",
		"response": "y",
		"trial_type": "image-keyboard-response",
		"trial_index": 13,
		"time_elapsed": 6024,
		"internal_node_id": "0.0-2.0"
	},
	{
		"rt": 1065.5999999940395,
		"stimulus": "img/happy_face_2.jpg",
		"response": "y",
		"trial_type": "image-keyboard-response",
		"trial_index": 14,
		"time_elapsed": 7091,
		"internal_node_id": "0.0-3.0"
	},
	{
		"rt": null,
		"stimulus": "img/happy_face_3.jpg",
		"response": null,
		"trial_type": "image-keyboard-response",
		"trial_index": 15,
		"time_elapsed": 9096,
		"internal_node_id": "0.0-4.0"
	},
	{
		"rt": 2614.300000011921,
		"stimulus": "img/happy_face_4.jpg",
		"response": "y",
		"trial_type": "image-keyboard-response",
		"trial_index": 16,
		"time_elapsed": 11712,
		"internal_node_id": "0.0-5.0"
	}
]