[
	{
		"success": true,
		"timeout": false,
		"failed_images": [],
		"failed_audio": [],
		"failed_video": [],
		"trial_type": "preload",
		"trial_index": 0,
		"time_elapsed": 4,
		"internal_node_id": "0.0-0.0"
	},
	{
		"stimulus": [
			"img/happy_face_1.jpg",
			"img/sad_face_3.jpg"
		],
		"rt": 10125,
		"correct": true,
		"response": "d",
		"trial_type": "categorize-animation",
		"trial_index": 1,
		"time_elapsed": 11509,
		"internal_node_id": "0.0-1.0"
	}
]