[
	{
		"rt": 7276.899999991059,
		"response": {
			"Vegetables": "Agree",
			"Fruit": "Strongly Agree"
		},
		"question_order": [
			0,
			1
		],
		"trial_type": "survey-multi-choice",
		"trial_index": 0,
		"time_elapsed": 7280,
		"internal_node_id": "0.0-0.0"
	},
	{
		"rt": 6355,
		"response": {
			"Q0": "Agree",
			"Q1": "Strongly Agree"
		},
		"question_order": [
			0,
			1
		],
		"trial_type": "survey-multi-choice",
		"trial_index": 1,
		"time_elapsed": 13637,
		"internal_node_id": "0.0-1.0"
	}
]